Time (s),Gyroscope X (deg/s),Gyroscope Y (deg/s),Gyroscope Z (deg/s),Accelerometer X (g),Accelerometer Y (g),Accelerometer Z (g),Magnetometer X (uT),Magnetometer Y (uT),Magnetometer Z (uT),Barometer (hPa)
0.006084919,0.009493358,-0.4433837,-0.1392388,0.6593832,-0.3039967,-0.7140916,-34.76969,24.21368,15.52793,1029.031
0.008549213,-0.05211511,-0.7387494,-0.2003114,0.657358,-0.3005571,-0.7178736,-34.76969,24.21368,15.52793,1029.031
0.011013031,0.07110181,-0.56153,-0.1392388,0.657336,-0.2981231,-0.7164067,-34.76969,24.21368,15.52793,1029.031
0.013476849,0.1943187,-0.5024568,-0.1392388,0.6632997,-0.3044592,-0.7141305,-34.76969,24.21368,15.52793,1029.036
0.015941143,0.07110181,-0.56153,-0.2003114,0.6613646,-0.3020867,-0.7064107,-34.76969,24.21368,15.52793,1029.036
0.018404961,0.009493358,-0.5024568,-0.1392388,0.6603771,-0.3030454,-0.7097715,-34.76969,24.21368,15.52793,1029.036
0.020868778,-0.1137236,-0.3843106,-0.2003114,0.659875,-0.3044788,-0.714581,-34.76969,24.21368,15.52793,1029.036
0.023337364,-0.05211511,-0.56153,-0.2003114,0.6539849,-0.3006361,-0.7106488,-34.76969,24.21368,15.52793,1029.036
0.025796890,-0.1137236,-0.4433837,-0.2003114,0.66085,-0.3020603,-0.7102442,-34.76969,24.21368,15.52793,1029.036
0.028260708,-0.175332,-0.4433837,-0.261384,0.658875,-0.3039778,-0.7169656,-34.76969,24.21368,15.52793,1029.036
0.030725002,-0.05211511,-0.3843106,-0.4446018,0.6489819,-0.2971645,-0.7211217,-34.76969,24.21368,15.52793,1029.036
0.033188820,-0.1137236,-0.4433837,-0.3224566,0.6549081,-0.2986399,-0.7149523,-34.76969,24.21368,15.52793,1029.036
0.035652637,0.009493358,-0.3252375,-0.2003114,0.6520544,-0.3050136,-0.7154792,-34.76969,24.21368,15.52793,1029.036
0.038116932,0.009493358,-0.2070912,-0.3835292,0.6504759,-0.3024856,-0.7274315,-34.76969,24.21368,15.52793,1029.036
0.040580749,0.009493358,-0.08894497,-0.261384,0.6539777,-0.3035183,-0.717398,-34.76969,24.21368,15.52793,1029.036
0.043044567,0.1327103,0.08827442,-0.2003114,0.6514918,-0.3034867,-0.7236133,-34.76969,24.21368,15.52793,1029.036
0.045508861,0.009493358,0.0292013,-0.2003114,0.650454,-0.3000516,-0.7259646,-34.76969,24.21368,15.52793,1029.036
0.047972679,0.009493358,0.2064207,-0.3835292,0.6489488,-0.3004987,-0.7326735,-34.76969,24.21368,15.52793,1029.036
0.050436497,0.07110181,0.2654938,-0.3835292,0.6460518,-0.3000779,-0.7264068,-34.76969,24.21368,15.52793,1029.036
0.052900791,0.07110181,0.1473476,-0.261384,0.6500861,-0.3064569,-0.7202762,-34.76969,24.21368,15.52793,1029.036
0.055364609,0.1943187,0.3836401,-0.4446018,0.6499657,-0.2981285,-0.7221006,-34.76969,24.21368,15.52793,1029.034
0.057828426,0.1943187,0.4427132,-0.3224566,0.6489944,-0.2986242,-0.7220978,-34.77005,23.84646,15.14643,1029.034
0.060288429,0.07110181,0.4427132,-0.3835292,0.6505185,-0.3001258,-0.7163705,-34.77005,23.84646,15.14643,1029.034
0.062752723,0.07110181,0.5608594,-0.4446018,0.6525298,-0.3069219,-0.721262,-34.77005,23.84646,15.14643,1029.034
0.065216541,0.1327103,0.4427132,-0.3224566,0.6543396,-0.2951792,-0.7201859,-34.77005,23.84646,15.14643,1029.034
0.067680359,0.3175357,0.7380788,-0.261384,0.6583323,-0.3005468,-0.7183616,-34.77005,23.84646,15.14643,1029.034
0.070144653,0.1943187,0.7380788,-0.0781662,0.6547489,-0.2907486,-0.7234981,-34.77005,23.84646,15.14643,1029.034
0.072608471,0.1327103,0.8562251,-0.1392388,0.6587179,-0.2883807,-0.710072,-34.77005,23.84646,15.14643,1029.034
0.075072288,0.07110181,0.8562251,-0.3224566,0.6514016,-0.2908572,-0.7124357,-34.77005,23.84646,15.14643,1029.034
0.077536583,0.1943187,0.7971519,-0.2003114,0.6582496,-0.2961158,-0.7221493,-34.77005,23.84646,15.14643,1029.034
0.080000400,0.1943187,0.7971519,-0.0781662,0.6730278,-0.3009656,-0.7146548,-34.77005,23.84646,15.14643,1029.034
0.082464695,0.2559272,0.9743713,-0.2003114,0.6636463,-0.2927302,-0.7125622,-34.77005,23.84646,15.14643,1029.034
0.084928512,0.3175357,1.033445,-0.1392388,0.6537855,-0.285954,-0.7119212,-34.77005,23.84646,15.14643,1029.034
0.087392330,0.4407526,0.7971519,-0.2003114,0.6612186,-0.2927654,-0.7101429,-34.77005,23.84646,15.14643,1029.034
0.089856624,0.5023611,0.7380788,-0.5056744,0.6642063,-0.2923268,-0.701048,-34.77005,23.84646,15.14643,1029.034
0.092320442,-0.05211511,1.092518,-0.261384,0.6519345,-0.2947587,-0.7134436,-34.77005,23.84646,15.14643,1029.034
0.094784260,0.07110181,0.9152982,-0.3224566,0.6628375,-0.3136465,-0.7281433,-34.77005,23.84646,15.14643,1029.033
0.097248554,0.4407526,0.5608594,-0.0781662,0.6882029,-0.2994435,-0.7085314,-34.77005,23.84646,15.14643,1029.033
0.099712372,0.07110181,0.6790057,0.349342,0.7044571,-0.2922504,-0.6759658,-34.77005,23.84646,15.14643,1029.033
0.102176189,0.3791441,0.5017864,0.5936324,0.6773261,-0.278659,-0.6861342,-34.77005,23.84646,15.14643,1029.033
0.104640484,-0.2985489,0.6790057,0.5325598,0.6656943,-0.2711444,-0.6562034,-34.77005,23.84646,15.14643,1029.033
0.107104301,-0.6681997,0.0292013,0.5936324,0.6841788,-0.3215838,-0.6953121,-34.46324,24.20878,15.97335,1029.033
0.109568119,0.3791441,-0.7387494,0.4714872,0.7058024,-0.2863201,-0.6826275,-34.46324,24.20878,15.97335,1029.033
0.112032413,-0.9146336,0.8562251,0.2882694,0.6617109,-0.2918025,-0.7077374,-34.46324,24.20878,15.97335,1029.033
0.114496231,-0.6681997,0.0292013,0.349342,0.6553102,-0.3525775,-0.7601815,-34.46324,24.20878,15.97335,1029.033
0.116960048,0.9336203,-0.6796762,0.349342,0.6856788,-0.285397,-0.6929987,-34.46324,24.20878,15.97335,1029.033
0.119424343,-0.9146336,0.7971519,-0.0781662,0.6543205,-0.3251099,-0.7080485,-34.46324,24.20878,15.97335,1029.033
0.121888637,0.07110181,0.2064207,-0.1392388,0.6286238,-0.3235155,-0.7466708,-34.46324,24.20878,15.97335,1029.033
0.124351978,0.6871864,-1.034115,0.2271968,0.7094359,-0.2894314,-0.656786,-34.46324,24.20878,15.97335,1029.033
0.126816273,0.07110181,0.5608594,0.349342,0.6652912,-0.2885897,-0.6775063,-34.46324,24.20878,15.97335,1029.033
0.129280090,-0.5449828,0.08827442,0.2882694,0.6363883,-0.2906384,-0.690714,-34.46324,24.20878,15.97335,1029.033
0.131743908,-0.2985489,-1.329481,0.2882694,0.7002255,-0.3059622,-0.6775229,-34.46324,24.20878,15.97335,1029.033
0.134208202,-0.8530251,-0.5024568,0.654705,0.7021127,-0.3063526,-0.6885784,-34.46324,24.20878,15.97335,1029.035
0.136672020,-1.653935,0.1473476,1.021141,0.6725735,-0.3603485,-0.7522616,-34.46324,24.20878,15.97335,1029.035
0.139135837,0.3175357,-1.093188,1.143286,0.6778765,-0.3023326,-0.7233479,-34.46324,24.20878,15.97335,1029.035
0.141600132,-0.4833744,-0.6206031,0.960068,0.6764684,-0.2768765,-0.6645169,-34.46324,24.20878,15.97335,1029.035
0.146527767,-0.1137236,-1.329481,0.1050516,0.6378518,-0.3017055,-0.7129207,-34.46324,24.20878,15.97335,1029.035
0.148996830,-0.2369405,-0.9750419,-0.1392388,0.7007142,-0.3059588,-0.6775271,-34.46324,24.20878,15.97335,1029.035
0.151455879,-0.3601574,0.2654938,-0.3224566,0.6539434,-0.311187,-0.7376345,-34.46324,24.20878,15.97335,1029.035
0.153920173,0.3175357,-1.034115,0.1050516,0.6731718,-0.3179927,-0.7263622,-34.46324,24.20878,15.97335,1029.035
0.156383991,0.5023611,-0.7978225,0.349342,0.6707367,-0.2533802,-0.6718795,-34.09669,23.46843,15.52904,1029.035
0.158849716,-1.284284,-0.08894497,0.1661242,0.6438605,-0.308575,-0.7048936,-34.09669,23.46843,15.52904,1029.035
0.161312103,-0.6681997,-0.9750419,0.654705,0.6428815,-0.3138795,-0.7154999,-34.09669,23.46843,15.52904,1029.035
0.163775921,-0.8530251,-1.329481,0.7768502,0.6902611,-0.3000305,-0.6941624,-34.09669,23.46843,15.52904,1029.035
0.166239738,-1.222676,-0.08894497,0.960068,0.6821192,-0.3262945,-0.7202955,-34.09669,23.46843,15.52904,1029.035
0.168704033,-0.3601574,-0.5024568,0.8379228,0.6416939,-0.3025641,-0.7249579,-34.09669,23.46843,15.52904,1029.035
0.171167850,-0.2369405,-0.8568956,0.5325598,0.6565677,-0.3002973,-0.6890774,-34.09669,23.46843,15.52904,1029.035
0.173631668,-0.2985489,-0.4433837,0.2271968,0.6362796,-0.287141,-0.7002692,-34.09669,23.46843,15.52904,1029.038
0.176095962,-0.4217659,-0.9159687,-0.261384,0.664542,-0.3283631,-0.721127,-34.09669,23.46843,15.52904,1029.038
0.178559780,0.3791441,-0.9159687,-0.6888922,0.6779093,-0.3004433,-0.714691,-34.09669,23.46843,15.52904,1029.038
0.181023598,-0.1137236,-0.7387494,-0.2003114,0.6884148,-0.3155853,-0.708235,-34.09669,23.46843,15.52904,1029.038
0.183487892,0.2559272,-0.5024568,-0.0170936,0.6623616,-0.3016206,-0.7025759,-34.09669,23.46843,15.52904,1029.038
0.185951710,0.009493358,-0.7978225,-0.0170936,0.6545408,-0.2905931,-0.6807946,-34.09669,23.46843,15.52904,1029.038
0.188415527,-0.2985489,-0.9159687,0.2882694,0.6604697,-0.2944803,-0.6789703,-34.09669,23.46843,15.52904,1029.038
0.190879822,-0.3601574,-1.211334,0.4714872,0.6680751,-0.2898439,-0.7024927,-34.09669,23.46843,15.52904,1029.038
0.193343639,-0.9762421,-1.211334,0.5936324,0.6967156,-0.3107015,-0.7000954,-34.09669,23.46843,15.52904,1029.038
0.195807457,-0.7914166,-0.9159687,0.5936324,0.6759885,-0.3048319,-0.7180822,-34.09669,23.46843,15.52904,1029.038
0.198271751,-0.4217659,-1.152261,0.7768502,0.6732383,-0.3103611,-0.7013286,-34.09669,23.46843,15.52904,1029.038
0.200735569,-0.3601574,-1.093188,0.654705,0.6578463,-0.2899546,-0.6971282,-34.09669,23.46843,15.52904,1029.038
0.203199386,-0.6065912,-1.388554,0.1661242,0.6520535,-0.2963409,-0.6985895,-34.09669,23.46843,15.52904,1029.038
0.205663681,-0.1137236,-1.742993,-0.1392388,0.6711588,-0.304932,-0.7094058,-34.09669,23.46843,15.52904,1029.038
0.208127498,-0.1137236,-1.565773,-0.2003114,0.6827661,-0.2955568,-0.7098801,-34.46458,23.84153,15.14752,1029.038
0.210591316,-0.2369405,-1.447627,-0.0781662,0.6819685,-0.3107049,-0.7124425,-34.46458,23.84153,15.14752,1029.038
0.213055610,0.07110181,-1.5067,0.1661242,0.6667479,-0.3010942,-0.7035673,-34.46458,23.84153,15.14752,1029.038
0.215519428,-0.05211511,-1.861139,0.1661242,0.6648359,-0.2963396,-0.6876647,-34.46458,23.84153,15.14752,1029.034
0.217983246,-0.4217659,-1.802066,0.2271968,0.6613005,-0.288042,-0.6885006,-34.46458,23.84153,15.14752,1029.034
0.220447540,-0.5449828,-1.920212,0.2882694,0.6647195,-0.2971693,-0.7068641,-34.46458,23.84153,15.14752,1029.034
0.222916126,-0.5449828,-2.038358,0.654705,0.679064,-0.3136479,-0.7138899,-34.46458,23.84153,15.14752,1029.034
0.225375175,-0.4833744,-1.861139,0.654705,0.6745512,-0.3043937,-0.7127874,-34.46458,23.84153,15.14752,1029.034
0.227839470,-0.6681997,-1.802066,0.5936324,0.6702354,-0.3074098,-0.7060673,-34.46458,23.84153,15.14752,1029.034
0.230303287,-0.175332,-1.802066,0.4104146,0.6495358,-0.2948273,-0.7067069,-34.46458,23.84153,15.14752,1029.034
0.232767582,-0.1137236,-2.097431,0.1661242,0.6563862,-0.2909352,-0.6980863,-34.46458,23.84153,15.14752,1029.034
0.235231399,0.009493358,-2.097431,-0.0170936,0.6656868,-0.2995596,-0.7131364,-34.46458,23.84153,15.14752,1029.034
0.237695217,-0.1137236,-2.156504,-0.261384,0.6701288,-0.307769,-0.7228625,-34.46458,23.84153,15.14752,1029.034
0.240159511,0.1943187,-2.274651,-0.1392388,0.6800254,-0.3136227,-0.7162968,-34.46458,23.84153,15.14752,1029.034
0.242623329,0.2559272,-1.979285,0.1661242,0.6651044,-0.2874113,-0.7033992,-34.46458,23.84153,15.14752,1029.034
0.245087147,-0.2369405,-2.156504,0.1050516,0.6608359,-0.2943359,-0.6972033,-34.46458,23.84153,15.14752,1029.034
0.247551441,-0.1137236,-2.274651,0.2271968,0.6553451,-0.2870148,-0.6999522,-34.46458,23.84153,15.14752,1029.034
0.250015259,-0.5449828,-2.215578,0.043979,0.6695877,-0.298077,-0.711714,-34.46458,23.84153,15.14752,1029.034
0.252479076,-0.5449828,-2.156504,0.2882694,0.6735415,-0.3043633,-0.717576,-34.46458,23.84153,15.14752,1029.034
0.254943371,-0.4833744,-2.333724,0.2882694,0.6700686,-0.3033639,-0.7232922,-34.46458,23.84153,15.14752,1029.038
0.257407188,-0.175332,-2.215578,0.2271968,0.6656961,-0.3010156,-0.7145922,-35.13578,23.85241,15.52599,1029.038
0.259869098,0.009493358,-2.156504,0.1050516,0.653344,-0.2898659,-0.7124412,-35.13578,23.85241,15.52599,1029.038
0.262331009,0.07110181,-2.156504,-0.1392388,0.6574071,-0.2977231,-0.7048882,-35.13578,23.85241,15.52599,1029.038
0.264795303,0.1327103,-2.392797,-0.261384,0.6602151,-0.2932239,-0.7149371,-35.13578,23.85241,15.52599,1029.038
0.267259121,0.009493358,-2.510943,-0.4446018,0.6769657,-0.3062701,-0.7209854,-35.13578,23.85241,15.52599,1029.038
0.269722938,0.3175357,-2.038358,-0.3224566,0.6720469,-0.3014502,-0.7160911,-35.13578,23.85241,15.52599,1029.038
0.272187233,0.2559272,-2.45187,-0.261384,0.6676772,-0.3005503,-0.7098063,-35.13578,23.85241,15.52599,1029.038
0.274651050,0.1943187,-2.510943,-0.0781662,0.6592922,-0.2942569,-0.7087037,-35.13578,23.85241,15.52599,1029.038
0.277114868,-0.1137236,-2.510943,-0.0781662,0.6573377,-0.2918621,-0.7038621,-35.13578,23.85241,15.52599,1029.038
0.279579162,-0.3601574,-2.510943,-0.2003114,0.6677436,-0.3059259,-0.7103471,-35.13578,23.85241,15.52599,1029.038
0.282042980,-0.3601574,-2.806309,-0.0781662,0.6750781,-0.3068429,-0.7118599,-35.13578,23.85241,15.52599,1029.038
0.284506798,-0.2369405,-2.570016,0.043979,0.6744686,-0.2999627,-0.716575,-35.13578,23.85241,15.52599,1029.038
0.286971092,-0.05211511,-2.570016,0.043979,0.6647758,-0.3039787,-0.7117389,-35.13578,23.85241,15.52599,1029.038
0.289434910,0.009493358,-2.629089,0.043979,0.6535066,-0.2972793,-0.7024508,-35.13578,23.85241,15.52599,1029.038
0.291898727,0.07110181,-2.629089,-0.0781662,0.6622599,-0.2957226,-0.7063468,-35.13578,23.85241,15.52599,1029.038
0.294363022,0.1943187,-2.806309,-0.3224566,0.6696416,-0.301993,-0.7112787,-35.13578,23.85241,15.52599,1029.035
0.296826839,-0.05211511,-2.747236,-0.5056744,0.6712246,-0.312234,-0.7138065,-35.13578,23.85241,15.52599,1029.035
0.299290657,0.2559272,-2.747236,-0.3835292,0.6721675,-0.3092969,-0.7133018,-35.13578,23.85241,15.52599,1029.035
0.301754951,0.3791441,-2.865382,-0.3835292,0.6622308,-0.2961708,-0.7116292,-35.13578,23.85241,15.52599,1029.035
0.304218769,0.07110181,-2.688163,-0.261384,0.6579092,-0.2962898,-0.7000787,-35.13578,23.85241,15.52599,1029.035
0.306682587,-0.1137236,-2.747236,-0.3224566,0.6579061,-0.2958045,-0.6995934,-35.13578,23.85241,15.52599,1029.035
0.309146881,-0.175332,-2.865382,-0.2003114,0.6692166,-0.3044786,-0.7065052,-34.76824,23.84651,15.97162,1029.035
0.311610699,-0.175332,-2.924455,-0.1392388,0.6623517,-0.3025727,-0.7059449,-34.76824,23.84651,15.97162,1029.035
0.316538811,0.1327103,-2.747236,-0.0781662,0.6613132,-0.3010641,-0.7121561,-34.76824,23.84651,15.97162,1029.035
0.319002628,0.1943187,-2.924455,-0.261384,0.6529342,-0.2967045,-0.713954,-34.76824,23.84651,15.97162,1029.035
0.321466923,0.5023611,-2.865382,-0.566747,0.6515155,-0.2991782,-0.7115707,-34.76824,23.84651,15.97162,1029.035
0.323930740,0.3175357,-2.983528,-0.566747,0.6607415,-0.2975996,-0.7178695,-34.76824,23.84651,15.97162,1029.035
0.326394558,0.4407526,-2.865382,-0.5056744,0.6662422,-0.303487,-0.7107865,-34.76824,23.84651,15.97162,1029.035
0.328858852,0.4407526,-2.924455,-0.5056744,0.6646925,-0.3019558,-0.7203513,-34.76824,23.84651,15.97162,1029.035
0.331322670,0.3791441,-2.806309,-0.3224566,0.6608273,-0.3025159,-0.7145671,-34.76824,23.84651,15.97162,1029.035
0.333786487,0.3175357,-2.924455,-0.3224566,0.6553565,-0.292809,-0.7096131,-34.76824,23.84651,15.97162,1029.038
0.336250782,0.2559272,-2.983528,-0.3224566,0.6559082,-0.2986592,-0.7116027,-34.76824,23.84651,15.97162,1029.038
0.338714599,0.009493358,-2.865382,-0.3224566,0.6579331,-0.3035436,-0.7107156,-34.76824,23.84651,15.97162,1029.038
0.341178417,0.009493358,-3.042601,-0.3224566,0.6648358,-0.3088653,-0.7122742,-34.76824,23.84651,15.97162,1029.038
0.343642711,0.1943187,-2.983528,-0.3224566,0.6618626,-0.3040209,-0.7088357,-34.76824,23.84651,15.97162,1029.038
0.346106529,0.3175357,-2.865382,-0.3835292,0.6603256,-0.3025044,-0.7164817,-34.76824,23.84651,15.97162,1029.038
0.348570347,0.3791441,-2.983528,-0.4446018,0.6490739,-0.3030515,-0.7187898,-34.76824,23.84651,15.97162,1029.038
0.351034641,0.3175357,-2.806309,-0.6278196,0.6573913,-0.2967413,-0.7053568,-34.76824,23.84651,15.97162,1029.038
0.353498459,0.3791441,-3.042601,-0.6888922,0.662303,-0.3034803,-0.7150705,-34.76824,23.84651,15.97162,1029.038
0.355962276,0.3175357,-3.160748,-0.8110374,0.6657179,-0.3039312,-0.717024,-34.76824,23.84651,15.97162,1029.038
0.358426571,0.5023611,-3.042601,-0.6888922,0.663227,-0.2985945,-0.7135841,-35.50233,24.59275,15.97029,1029.038
0.360890388,0.5639695,-3.042601,-0.5056744,0.6641796,-0.2956684,-0.7116403,-35.50233,24.59275,15.97029,1029.038
0.363354206,0.6255779,-2.924455,-0.5056744,0.6612574,-0.2923283,-0.7034214,-35.50233,24.59275,15.97029,1029.038
0.365818500,0.3175357,-3.160748,-0.5056744,0.6558547,-0.29378,-0.710108,-35.50233,24.59275,15.97029,1029.038
0.368282318,0.1943187,-3.278894,-0.5056744,0.6602309,-0.2946873,-0.7154335,-35.50233,24.59275,15.97029,1029.038
0.370746136,0.1327103,-3.160748,-0.3835292,0.662757,-0.3010281,-0.7155266,-35.50233,24.59275,15.97029,1029.038
0.373210430,0.2559272,-3.219821,-0.3224566,0.6632863,-0.3063707,-0.7199091,-35.50233,24.59275,15.97029,1029.036
0.375674248,0.3175357,-3.278894,-0.3224566,0.6612846,-0.2995858,-0.7135785,-35.50233,24.59275,15.97029,1029.036
0.378138065,0.4407526,-3.278894,-0.4446018,0.6607835,-0.2971662,-0.7106684,-35.50233,24.59275,15.97029,1029.036
0.380602360,0.4407526,-3.219821,-0.6888922,0.6529374,-0.2967082,-0.7134742,-35.50233,24.59275,15.97029,1029.036
0.383067608,0.3791441,-3.39704,-0.566747,0.6578373,-0.3000611,-0.7183519,-35.50233,24.59275,15.97029,1029.036
0.385530472,0.3791441,-3.337967,-0.6888922,0.6643149,-0.3083499,-0.7161021,-35.50233,24.59275,15.97029,1029.036
0.387994289,0.3175357,-3.515186,-0.5056744,0.6656379,-0.3014304,-0.7241918,-35.50233,24.59275,15.97029,1029.036
0.390458107,0.4407526,-3.337967,-0.3835292,0.6587071,-0.2922225,-0.7192307,-35.50233,24.59275,15.97029,1029.036
0.392922401,0.3175357,-3.160748,-0.4446018,0.6544388,-0.2981839,-0.7111049,-35.50233,24.59275,15.97029,1029.036
0.395386219,0.2559272,-3.278894,-0.5056744,0.6583301,-0.2966902,-0.7111216,-35.50233,24.59275,15.97029,1029.036
0.397850036,0.2559272,-3.39704,-0.3835292,0.6602882,-0.2976438,-0.7125885,-35.50233,24.59275,15.97029,1029.036
0.400314331,0.1327103,-3.337967,-0.261384,0.6618041,-0.305399,-0.7203652,-35.50233,24.59275,15.97029,1029.036
0.402778149,0.1943187,-3.337967,-0.1392388,0.6558723,-0.3005449,-0.7207393,-35.50233,24.59275,15.97029,1029.036
0.405241966,0.2559272,-3.337967,-0.1392388,0.6499538,-0.2942608,-0.7162997,-35.50233,24.59275,15.97029,1029.036
0.407706261,0.3175357,-3.337967,-0.3224566,0.6470177,-0.2947586,-0.7177193,-35.50235,23.85833,15.52468,1029.036
0.410170078,0.3175357,-3.337967,-0.566747,0.6500076,-0.2981768,-0.7158644,-35.50235,23.85833,15.52468,1029.036
0.412633896,0.5023611,-3.160748,-0.5056744,0.6515377,-0.3011307,-0.7120726,-35.50235,23.85833,15.52468,1029.036
0.415098190,0.2559272,-3.160748,-0.6888922,0.655907,-0.3034753,-0.7212524,-35.50235,23.85833,15.52468,1029.037
0.417562008,0.5023611,-3.278894,-0.5056744,0.6563669,-0.302957,-0.7246089,-35.50235,23.85833,15.52468,1029.037
0.420029163,0.4407526,-3.219821,-0.2003114,0.6475382,-0.2972005,-0.7177512,-35.50235,23.85833,15.52468,1029.037
0.422490120,0.3175357,-3.219821,-0.2003114,0.6426504,-0.2972338,-0.7177095,-35.50235,23.85833,15.52468,1029.037
0.424953937,0.3791441,-3.39704,-0.4446018,0.6470276,-0.2938066,-0.7143503,-35.50235,23.85833,15.52468,1029.037
0.427417755,0.1327103,-3.278894,-0.3224566,0.6496009,-0.3050191,-0.7168974,-35.50235,23.85833,15.52468,1029.037
0.429882049,0.2559272,-3.101675,-0.261384,0.642751,-0.3069848,-0.7216583,-35.50235,23.85833,15.52468,1029.037
0.432345867,0.2559272,-3.160748,-0.4446018,0.6500229,-0.3015666,-0.7202206,-35.50235,23.85833,15.52468,1029.037
0.434809685,0.3175357,-2.983528,-0.3835292,0.6460298,-0.2976439,-0.7249399,-35.50235,23.85833,15.52468,1029.037
0.437273979,0.5023611,-2.983528,-0.4446018,0.6456083,-0.2991699,-0.7177567,-35.50235,23.85833,15.52468,1029.037
0.439737797,0.3791441,-2.924455,-0.6278196,0.6430596,-0.2928032,-0.7210216,-35.50235,23.85833,15.52468,1029.037
0.442201614,0.3791441,-2.924455,-0.566747,0.6505588,-0.306435,-0.722679,-35.50235,23.85833,15.52468,1029.037
0.444665909,0.5023611,-2.865382,-0.3224566,0.6504695,-0.3019966,-0.727426,-35.50235,23.85833,15.52468,1029.037
0.447129726,0.5023611,-2.747236,-0.3835292,0.6489908,-0.3005469,-0.7264373,-35.50235,23.85833,15.52468,1029.037
0.449593544,0.6255779,-2.688163,-0.3835292,0.6465442,-0.2981519,-0.7220714,-35.50235,23.85833,15.52468,1029.037
0.452057838,0.5639695,-2.45187,-0.3835292,0.6475096,-0.2952407,-0.7182087,-35.50235,23.85833,15.52468,1029.037
0.454521656,0.3175357,-2.688163,-0.566747,0.6519531,-0.2976707,-0.7163553,-35.50235,23.85833,15.52468,1029.036
0.456985950,0.5639695,-2.747236,-0.5056744,0.6495366,-0.3039817,-0.7245616,-35.50235,23.85833,15.52468,1029.036
0.459445476,0.3791441,-2.688163,-0.5056744,0.651527,-0.3049724,-0.7212315,-34.76922,23.84649,15.52729,1029.036
0.461909771,0.5639695,-2.570016,-0.3835292,0.6514602,-0.3010416,-0.7235855,-34.76922,23.84649,15.52729,1029.036
0.464373588,0.5639695,-2.629089,-0.5056744,0.6534598,-0.3034883,-0.7217113,-34.76922,23.84649,15.52729,1029.036
0.466837406,0.6871864,-2.45187,-0.4446018,0.6456562,-0.3011521,-0.7144211,-34.76922,23.84649,15.52729,1029.036
0.469301700,0.5639695,-2.274651,-0.6278196,0.6489972,-0.3005544,-0.7254779,-34.76922,23.84649,15.52729,1029.036
0.471765518,0.5023611,-2.45187,-0.6888922,0.652441,-0.3010387,-0.7231142,-34.76922,23.84649,15.52729,1029.036
0.474233150,0.4407526,-2.45187,-0.6888922,0.6539171,-0.3010398,-0.7216876,-34.76922,23.84649,15.52729,1029.036
0.476693630,0.5023611,-2.510943,-0.6278196,0.6550347,-0.307939,-0.7140985,-34.76922,23.84649,15.52729,1029.036
0.479157448,0.5023611,-2.45187,-0.5056744,0.6505185,-0.3001258,-0.7163705,-34.76922,23.84649,15.52729,1029.036
0.481621742,0.5639695,-2.45187,-0.4446018,0.6475573,-0.298186,-0.716803,-34.76922,23.84649,15.52729,1029.036
0.484085560,0.4407526,-2.510943,-0.3835292,0.6485534,-0.3010913,-0.7197228,-34.76922,23.84649,15.52729,1029.036
0.489013672,0.4407526,-2.392797,-0.4446018,0.6525207,-0.3049843,-0.7188413,-34.76922,23.84649,15.52729,1029.036
0.491477489,0.5639695,-2.392797,-0.566747,0.6482418,-0.3143059,-0.7189093,-34.76922,23.84649,15.52729,1029.036
0.493941307,0.5023611,-2.274651,-0.3224566,0.6461568,-0.3054981,-0.7211911,-34.76922,23.84649,15.52729,1029.036
0.496405601,0.5023611,-2.333724,-0.3224566,0.6495534,-0.3015922,-0.7173382,-34.76922,23.84649,15.52729,1029.036
0.498869419,0.5639695,-2.274651,-0.6888922,0.64762,-0.3050027,-0.7207184,-34.76922,23.84649,15.52729,1029.036
0.501333237,0.5023611,-2.215578,-0.6888922,0.648154,-0.3050514,-0.7140067,-34.76922,23.84649,15.52729,1029.036
0.503797531,0.7487949,-2.156504,-0.5056744,0.6437447,-0.3069967,-0.7192681,-34.76922,23.84649,15.52729,1029.036
0.506261349,0.6871864,-2.45187,-0.566747,0.6485656,-0.3035141,-0.7226289,-34.76922,23.84649,15.52729,1029.036
0.508725166,0.5639695,-2.392797,-0.566747,0.6422154,-0.3011531,-0.7172701,-34.7674,23.84654,16.35248,1029.036
0.511189461,0.7487949,-2.156504,-0.4446018,0.641685,-0.2996633,-0.7206072,-34.7674,23.84654,16.35248,1029.036
0.513653278,0.5639695,-1.920212,-0.566747,0.6451829,-0.303582,-0.7168432,-34.7674,23.84654,16.35248,1029.036
0.516117096,0.4407526,-2.156504,-0.6278196,0.6442652,-0.3089569,-0.7183351,-34.7674,23.84654,16.35248,1029.036
0.518581390,0.6255779,-1.979285,-0.4446018,0.6457434,-0.3128146,-0.7241486,-34.7674,23.84654,16.35248,1029.036
0.521045208,0.5023611,-1.979285,-0.566747,0.6462039,-0.3103698,-0.7236452,-34.7674,23.84654,16.35248,1029.036
0.523509025,0.4407526,-1.920212,-0.566747,0.6418048,-0.3103998,-0.7236077,-34.7674,23.84654,16.35248,1029.036
0.525973320,0.5639695,-1.802066,-0.566747,0.6433479,-0.3128869,-0.7169321,-34.7674,23.84654,16.35248,1029.036
0.528437137,0.5639695,-1.802066,-0.6278196,0.6501905,-0.3142851,-0.7198853,-34.7674,23.84654,16.35248,1029.036
0.530900955,0.7487949,-1.742993,-0.6278196,0.6506155,-0.3113179,-0.7236939,-34.7674,23.84654,16.35248,1029.036
0.533365250,0.5023611,-1.742993,-0.6888922,0.6482161,-0.3137946,-0.721782,-34.7674,23.84654,16.35248,1029.039
0.535829067,0.5023611,-1.624846,-0.7499648,0.6486955,-0.3128169,-0.7212954,-34.7674,23.84654,16.35248,1029.039
0.538292885,0.5639695,-1.624846,-0.7499648,0.6487595,-0.3148176,-0.7155612,-34.7674,23.84654,16.35248,1029.039
0.540757179,0.5639695,-1.624846,-0.7499648,0.6443285,-0.3138472,-0.7183906,-34.7674,23.84654,16.35248,1029.039
0.543220997,0.4407526,-1.624846,-0.7499648,0.6433538,-0.3153024,-0.7207975,-34.7674,23.84654,16.35248,1029.039
0.545685291,0.3791441,-1.683919,-0.8110374,0.6473012,-0.3210996,-0.726654,-34.7674,23.84654,16.35248,1029.039
0.548149109,0.3175357,-1.565773,-0.9331825,0.6487744,-0.3196522,-0.7228123,-34.7674,23.84654,16.35248,1029.039
0.550612926,0.3791441,-1.447627,-1.055328,0.6486691,-0.3151953,-0.7299578,-34.7674,23.84654,16.35248,1029.039
0.553077221,0.3175357,-1.5067,-1.055328,0.648612,-0.3112756,-0.7308728,-34.7674,23.84654,16.35248,1029.039
0.555541038,0.4407526,-1.447627,-1.055328,0.6476094,-0.3083629,-0.7289123,-34.7674,23.84654,16.35248,1029.039
0.558007717,0.3791441,-1.447627,-1.055328,0.647534,-0.3010497,-0.7259507,-34.7674,23.84654,16.35248,1029.039
0.560469150,0.5639695,-1.270407,-1.1164,0.6465566,-0.3000931,-0.7240124,-34.46193,23.8416,16.35357,1029.039
0.562932968,0.4407526,-1.388554,-1.055328,0.6548946,-0.3010331,-0.721696,-34.46193,23.8416,16.35357,1029.039
0.565396786,0.5023611,-1.329481,-1.055328,0.6538664,-0.2976091,-0.7226081,-34.46193,23.8416,16.35357,1029.039
0.567861080,0.4407526,-1.388554,-1.177473,0.6533365,-0.294193,-0.7220854,-34.46193,23.8416,16.35357,1029.039
0.570324898,0.3791441,-1.388554,-0.9942551,0.6587206,-0.2903109,-0.7134521,-34.46193,23.8416,16.35357,1029.039
0.572788715,0.3175357,-1.329481,-0.8721099,0.6581042,-0.2843865,-0.7210565,-34.46193,23.8416,16.35357,1029.039
0.575253010,0.3791441,-1.447627,-0.8110374,0.6590717,-0.2862951,-0.7263638,-34.46193,23.8416,16.35357,1029.034
0.577716827,0.2559272,-1.447627,-0.8110374,0.6610627,-0.2843962,-0.7172439,-34.46193,23.8416,16.35357,1029.034
0.580180645,0.2559272,-1.447627,-0.5056744,0.6663888,-0.2799657,-0.7162804,-34.46193,23.8416,16.35357,1029.034
0.582644939,0.2559272,-1.565773,-0.3835292,0.6649382,-0.2819206,-0.7177292,-34.46193,23.8416,16.35357,1029.034
0.585108757,0.1943187,-1.565773,-0.3835292,0.6630183,-0.2824564,-0.7134007,-34.46193,23.8416,16.35357,1029.034
0.587572575,0.3175357,-1.624846,-0.566747,0.6697723,-0.2770082,-0.7162763,-34.46193,23.8416,16.35357,1029.034
0.590036869,0.3175357,-1.683919,-0.4446018,0.6731809,-0.27697,-0.7182243,-34.46193,23.8416,16.35357,1029.034
0.592500687,0.1943187,-1.802066,-0.2003114,0.6707908,-0.2809026,-0.7177682,-34.46193,23.8416,16.35357,1029.034
0.594964504,0.2559272,-1.861139,-0.2003114,0.674666,-0.2789087,-0.7192184,-34.46193,23.8416,16.35357,1029.034
0.597428799,0.07110181,-2.038358,0.1050516,0.6761674,-0.2803844,-0.7168491,-34.46193,23.8416,16.35357,1029.034
0.599892616,-0.05211511,-2.038358,0.1661242,0.6747779,-0.2828915,-0.7101486,-34.46193,23.8416,16.35357,1029.034
0.602356434,0.07110181,-2.038358,0.2882694,0.6718456,-0.2819482,-0.7081936,-34.46193,23.8416,16.35357,1029.034
0.604820728,-0.175332,-2.215578,0.349342,0.6732993,-0.2804786,-0.7072299,-34.46193,23.8416,16.35357,1029.034
0.607284546,-0.4217659,-2.274651,0.4104146,0.6728324,-0.2833975,-0.7096577,-34.46193,23.8416,16.35357,1029.034
0.609748363,-0.4217659,-2.333724,0.5936324,0.6752406,-0.2838217,-0.7159203,-34.76693,23.47934,16.35184,1029.034
0.612212658,-0.3601574,-2.392797,0.4714872,0.6717905,-0.2828484,-0.7182785,-34.76693,23.47934,16.35184,1029.034
0.614676475,-0.3601574,-2.747236,0.4714872,0.6757041,-0.2818622,-0.7159022,-34.76693,23.47934,16.35184,1029.035
0.617140770,-0.1137236,-2.688163,0.5936324,0.6674402,-0.2814892,-0.7081505,-34.76693,23.47934,16.35184,1029.035
0.619604587,-0.4217659,-2.629089,0.7768502,0.6757206,-0.2804359,-0.7106088,-34.76693,23.47934,16.35184,1029.035
0.622068405,-0.2985489,-2.865382,0.8989954,0.6772375,-0.2843382,-0.7106658,-34.76693,23.47934,16.35184,1029.035
0.624532699,-0.2369405,-3.160748,0.960068,0.6714389,-0.2887906,-0.7092266,-34.76693,23.47934,16.35184,1029.035
0.626996517,-0.2985489,-3.160748,0.960068,0.6723593,-0.2848642,-0.7101499,-34.76693,23.47934,16.35184,1029.035
0.629460335,-0.5449828,-3.160748,0.960068,0.6636023,-0.2883437,-0.7105934,-34.76693,23.47934,16.35184,1029.035
0.631924629,-0.4833744,-3.337967,1.021141,0.6626436,-0.2902991,-0.7115667,-34.76693,23.47934,16.35184,1029.035
0.634388447,-0.4833744,-3.39704,1.082213,0.6650617,-0.2902528,-0.7154252,-34.76693,23.47934,16.35184,1029.035
0.636852264,-0.5449828,-3.456113,1.143286,0.6650838,-0.2922052,-0.7159271,-34.76693,23.47934,16.35184,1029.035
0.639316559,-0.4833744,-3.515186,1.326504,0.6567549,-0.2936843,-0.7216293,-34.76693,23.47934,16.35184,1029.035
0.641780376,-0.4833744,-3.456113,1.326504,0.6549338,-0.2991512,-0.7120796,-34.76693,23.47934,16.35184,1029.035
0.644244194,-0.4833744,-3.515186,1.265431,0.653512,-0.3016212,-0.7101761,-34.76693,23.47934,16.35184,1029.035
0.646708488,-0.4217659,-3.515186,1.143286,0.6530257,-0.3040363,-0.7145171,-34.76693,23.47934,16.35184,1029.035
0.649172306,-0.4217659,-3.633332,1.143286,0.6554251,-0.3020413,-0.7173939,-34.76693,23.47934,16.35184,1029.035
0.651636124,-0.6681997,-3.633332,1.204358,0.6526221,-0.3118456,-0.7170002,-34.76693,23.47934,16.35184,1029.035
0.654100418,-0.6681997,-3.692406,1.265431,0.6506354,-0.3094137,-0.7169558,-34.76693,23.47934,16.35184,1029.031
0.656564236,-0.3601574,-3.751479,1.204358,0.650197,-0.3142926,-0.718926,-34.76693,23.47934,16.35184,1029.031
0.661488056,-0.5449828,-3.692406,1.021141,0.6425031,-0.3231633,-0.7170404,-34.76693,23.47934,16.35184,1029.031
0.663952351,-0.6065912,-3.751479,1.082213,0.6439095,-0.3187483,-0.7174826,-34.76693,23.47934,16.35184,1029.031
0.666416168,-0.5449828,-3.692406,1.204358,0.6488442,-0.3240683,-0.7209435,-34.76693,23.47934,16.35184,1029.031
0.668879986,-0.4833744,-3.692406,1.021141,0.6454675,-0.3255884,-0.7170932,-34.76693,23.47934,16.35184,1029.031
0.671344280,-0.4833744,-3.692406,0.7768502,0.6434899,-0.3250942,-0.7194695,-34.76693,23.47934,16.35184,1029.031
0.673808098,-0.4833744,-3.692406,0.654705,0.6448236,-0.3143329,-0.7184004,-34.76693,23.47934,16.35184,1029.031
0.676271915,-0.4217659,-3.515186,0.5325598,0.6420081,-0.3226775,-0.7170307,-34.76693,23.47934,16.35184,1029.031
0.678736210,-0.4833744,-3.515186,0.349342,0.6463666,-0.3173016,-0.7126898,-34.76693,23.47934,16.35184,1029.031
0.681200027,-0.4217659,-3.57426,0.5325598,0.6482925,-0.3177365,-0.7179888,-34.76693,23.47934,16.35184,1029.031
0.683663845,-0.4833744,-3.515186,0.5325598,0.6447921,-0.3114061,-0.7174076,-34.76693,23.47934,16.35184,1029.031
0.686128139,-0.3601574,-3.57426,0.7157776,0.6497781,-0.3182304,-0.7160881,-34.76693,23.47934,16.35184,1029.031
0.688591957,-0.4217659,-3.633332,0.4714872,0.6452587,-0.309932,-0.7178748,-34.76693,23.47934,16.35184,1029.031
0.691055775,-0.5449828,-3.692406,0.4104146,0.6466776,-0.3064951,-0.7183282,-34.76693,23.47934,16.35184,1029.031
0.693520069,-0.6065912,-3.751479,0.4714872,0.6487471,-0.3128763,-0.7136201,-34.76693,23.47934,16.35184,1029.03
0.695983887,-0.4833744,-3.692406,0.4104146,0.6496737,-0.3104022,-0.7164789,-34.76693,23.47934,16.35184,1029.03
0.698448181,-0.2985489,-3.633332,0.4714872,0.6525522,-0.3074294,-0.718869,-34.76693,23.47934,16.35184,1029.03
0.700911999,-0.2985489,-3.751479,0.5325598,0.6530797,-0.3074706,-0.7131168,-34.76693,23.47934,16.35184,1029.03
0.703375816,-0.4217659,-3.751479,0.349342,0.6540579,-0.3055376,-0.7092653,-34.76693,23.47934,16.35184,1029.03
0.705840111,-0.4833744,-3.810552,0.349342,0.6558856,-0.2986332,-0.7149606,-34.76693,23.47934,16.35184,1029.03
0.708303928,-0.4833744,-3.928698,0.5325598,0.650614,-0.3045717,-0.7106641,-34.76693,23.47934,16.35184,1029.03
0.710770607,-0.4833744,-4.105918,0.4104146,0.6535842,-0.3089307,-0.7136173,-35.13361,24.21968,16.73267,1029.03
0.713232040,-0.5449828,-4.046844,0.4104146,0.6550508,-0.3079575,-0.7117,-35.13361,24.21968,16.73267,1029.03
0.715695858,-0.5449828,-4.16499,0.4104146,0.6530865,-0.3065149,-0.7102275,-35.13361,24.21968,16.73267,1029.03
0.718159676,-0.5449828,-4.16499,0.4714872,0.6579862,-0.3103493,-0.7160701,-35.13361,24.21968,16.73267,1029.03
0.720623970,-0.5449828,-4.224064,0.5325598,0.6579491,-0.3040438,-0.709282,-35.13361,24.21968,16.73267,1029.03
0.723092556,-0.6065912,-4.224064,0.4714872,0.6535015,-0.3044998,-0.717405,-35.13361,24.21968,16.73267,1029.03
0.725551605,-0.5449828,-4.283137,0.4104146,0.6510382,-0.3049757,-0.7212273,-35.13361,24.21968,16.73267,1029.03
0.728015900,-0.7298082,-4.401283,0.5936324,0.6540258,-0.3045372,-0.7121324,-35.13361,24.21968,16.73267,1029.03
0.730479717,-0.7298082,-4.401283,0.5325598,0.6525502,-0.3030912,-0.7106641,-35.13361,24.21968,16.73267,1029.03
0.732943535,-0.7298082,-4.401283,0.5325598,0.6510195,-0.3025454,-0.7192807,-35.13361,24.21968,16.73267,1029.03
0.735407829,-0.8530251,-4.283137,0.7157776,0.6446691,-0.300666,-0.7148869,-35.13361,24.21968,16.73267,1029.031
0.737871647,-0.6681997,-4.460356,0.5936324,0.6530328,-0.3021173,-0.7096978,-35.13361,24.21968,16.73267,1029.031
0.740335464,-0.7914166,-4.578503,0.7768502,0.6543742,-0.2985913,-0.721664,-35.13361,24.21968,16.73267,1029.031
0.742799759,-0.9146336,-4.637576,0.654705,0.6514414,-0.2990929,-0.7226039,-35.13361,24.21968,16.73267,1029.031
0.745263576,-0.9146336,-4.755722,0.5936324,0.6524574,-0.3000939,-0.7187857,-35.13361,24.21968,16.73267,1029.031
0.747727394,-0.9146336,-4.814795,0.7157776,0.6509311,-0.2952174,-0.7182379,-35.13361,24.21968,16.73267,1029.031
0.750191688,-0.7914166,-4.873868,0.5325598,0.6480201,-0.2986346,-0.7216098,-35.13361,24.21968,16.73267,1029.031
0.752655506,-0.8530251,-4.755722,0.654705,0.6465691,-0.3015528,-0.7249885,-35.13361,24.21968,16.73267,1029.031
0.755119324,-0.8530251,-4.814795,0.5936324,0.6485469,-0.3010838,-0.7206823,-35.13361,24.21968,16.73267,1029.031
0.757583618,-0.7914166,-4.873868,0.5936324,0.6475435,-0.3015424,-0.7254765,-35.13361,24.21968,16.73267,1029.031
0.760047436,-0.8530251,-4.696649,0.7157776,0.644538,-0.2961794,-0.7258701,-34.76656,23.84656,16.73334,1029.031
0.762511253,-0.8530251,-4.696649,0.7768502,0.6411361,-0.2957433,-0.7219977,-34.76656,23.84656,16.73334,1029.031
0.764975548,-0.8530251,-4.755722,0.7768502,0.6421189,-0.299597,-0.7287663,-34.76656,23.84656,16.73334,1029.031
0.767439365,-0.9146336,-4.873868,0.7157776,0.6449983,-0.2942162,-0.7263317,-34.76656,23.84656,16.73334,1029.031
0.769903183,-0.9146336,-4.755722,0.8379228,0.6425822,-0.2986007,-0.7306782,-34.76656,23.84656,16.73334,1029.031
0.772371292,-0.9762421,-4.755722,0.7768502,0.6440836,-0.300558,-0.7292739,-34.76656,23.84656,16.73334,1029.031
0.774831295,-0.7914166,-4.873868,0.7768502,0.6445151,-0.2971166,-0.7311579,-34.76656,23.84656,16.73334,1029.032
0.777295589,-0.8530251,-4.814795,0.7768502,0.6420714,-0.2966516,-0.7301721,-34.76656,23.84656,16.73334,1029.032
0.779759407,-1.03785,-4.755722,0.7768502,0.6396404,-0.2966831,-0.7282324,-34.76656,23.84656,16.73334,1029.032
0.782223225,-0.8530251,-4.696649,0.8379228,0.6381584,-0.2947481,-0.7267585,-34.76656,23.84656,16.73334,1029.032
0.784687519,-0.8530251,-4.696649,0.8379228,0.6405187,-0.2936718,-0.7373219,-34.76656,23.84656,16.73334,1029.032
0.787151337,-0.9146336,-4.873868,0.8379228,0.6425181,-0.2970817,-0.7373774,-34.76656,23.84656,16.73334,1029.032
0.789615154,-0.7914166,-4.696649,0.8379228,0.6405788,-0.2980768,-0.7368922,-34.76656,23.84656,16.73334,1029.032
0.792079449,-0.7914166,-4.51943,0.960068,0.6362438,-0.300589,-0.7320853,-34.76656,23.84656,16.73334,1029.032
0.794543266,-0.7298082,-4.578503,0.8989954,0.637164,-0.2976259,-0.7349385,-34.76656,23.84656,16.73334,1029.032
0.797007084,-0.7298082,-4.51943,0.8989954,0.642525,-0.2956443,-0.7335231,-34.76656,23.84656,16.73334,1029.032
0.799471378,-0.7298082,-4.283137,0.7157776,0.6351932,-0.2961758,-0.7344255,-34.76656,23.84656,16.73334,1029.032
0.801935196,-0.7914166,-4.283137,0.7157776,0.6356208,-0.2956204,-0.742579,-34.76656,23.84656,16.73334,1029.032
0.804399013,-0.7298082,-4.224064,0.8989954,0.6346841,-0.2995282,-0.7440543,-34.76656,23.84656,16.73334,1029.032
0.806863308,-0.6681997,-4.283137,0.7768502,0.6366522,-0.2990481,-0.7411872,-34.76656,23.84656,16.73334,1029.032
0.809327126,-0.7298082,-4.105918,0.7768502,0.6332596,-0.300068,-0.7387705,-34.76656,23.84656,16.73334,1029.032
0.811794281,-0.7914166,-4.046844,0.8379228,0.6317328,-0.2966362,-0.7411177,-34.76522,22.80617,16.73153,1029.032
0.814255238,-0.6681997,-3.987771,0.7768502,0.6302692,-0.2985764,-0.7444853,-34.76522,22.80617,16.73153,1029.026
0.816719055,-0.7298082,-4.046844,0.7768502,0.6288761,-0.3025246,-0.7411593,-34.76522,22.80617,16.73153,1029.026
0.819182873,-0.6681997,-3.869625,0.7768502,0.6239942,-0.3044918,-0.744018,-34.76522,22.80617,16.73153,1029.026
0.821647167,-0.5449828,-3.633332,0.7157776,0.6273552,-0.3015083,-0.7473719,-34.76522,22.80617,16.73153,1029.026
0.824110985,-0.4217659,-3.515186,0.654705,0.6297861,-0.3014768,-0.7493116,-34.76522,22.80617,16.73153,1029.026
0.826574802,-0.6065912,-3.515186,0.5936324,0.6258719,-0.3043894,-0.7555476,-34.76522,22.80617,16.73153,1029.026
0.829039097,-0.4833744,-3.456113,0.4714872,0.6239723,-0.3020577,-0.7425511,-34.76522,22.80617,16.73153,1029.026
0.833966732,-0.4217659,-3.219821,0.5936324,0.6239874,-0.3059291,-0.7478724,-34.76522,22.80617,16.73153,1029.026
0.836431026,-0.4833744,-3.160748,0.2882694,0.6200991,-0.3083898,-0.7493059,-34.76522,22.80617,16.73153,1029.026
0.838894844,-0.4833744,-2.806309,0.2271968,0.6166005,-0.3073609,-0.7588596,-34.76522,22.80617,16.73153,1029.026
0.841358662,-0.4217659,-2.747236,0.1661242,0.6161084,-0.3078421,-0.7603002,-34.76522,22.80617,16.73153,1029.026
0.843822956,-0.4833744,-2.570016,0.043979,0.6146519,-0.3073816,-0.7578835,-34.76522,22.80617,16.73153,1029.026
0.846286774,-0.2985489,-2.510943,0.1050516,0.6151537,-0.3069115,-0.7550039,-34.76522,22.80617,16.73153,1029.026
0.848751068,-0.175332,-2.274651,-0.0170936,0.6146455,-0.3068926,-0.7578779,-34.76522,22.80617,16.73153,1029.026
0.851214886,-0.1137236,-2.038358,-0.1392388,0.6087355,-0.3049541,-0.7606839,-34.76522,22.80617,16.73153,1029.026
0.853678703,-0.05211511,-1.802066,-0.1392388,0.606308,-0.3040261,-0.7563345,-34.76522,22.80617,16.73153,1029.028
0.856142998,0.009493358,-1.624846,-0.3224566,0.6082465,-0.3059207,-0.7626096,-34.76522,22.80617,16.73153,1029.028
0.858606815,0.07110181,-1.5067,-0.3835292,0.6101858,-0.304444,-0.76213,-34.76522,22.80617,16.73153,1029.028
0.861066818,0.1943187,-1.211334,-0.4446018,0.6073072,-0.3074167,-0.7597398,-34.09452,23.83571,16.73573,1029.028
0.863530636,0.1943187,-1.093188,-0.6278196,0.6057712,-0.3025289,-0.7606311,-34.09452,23.83571,16.73573,1029.028
0.865994930,0.3175357,-0.9159687,-0.6888922,0.604739,-0.301991,-0.7678128,-34.09452,23.83571,16.73573,1029.028
0.868458748,0.5023611,-0.56153,-0.8110374,0.6086433,-0.2995488,-0.7639807,-34.09452,23.83571,16.73573,1029.028
0.870922565,0.4407526,-0.2070912,-0.8721099,0.6062763,-0.3020626,-0.7572718,-34.09452,23.83571,16.73573,1029.028
0.873386860,0.5023611,-0.2070912,-0.9331825,0.6057487,-0.302503,-0.763989,-34.09452,23.83571,16.73573,1029.028
0.875850677,0.5639695,0.2064207,-1.1164,0.6057779,-0.3020548,-0.7587067,-34.09452,23.83571,16.73573,1029.028
0.878314495,0.7487949,0.324567,-0.9942551,0.6067178,-0.2976691,-0.7557868,-34.09452,23.83571,16.73573,1029.028
0.880778789,0.8104033,0.5608594,-1.055328,0.6096624,-0.3015168,-0.7616127,-34.09452,23.83571,16.73573,1029.028
0.883242607,0.8720118,0.6199326,-0.9331825,0.6140908,-0.3000754,-0.7544381,-34.09452,23.83571,16.73573,1029.028
0.885706425,0.8104033,0.9152982,-1.177473,0.6086573,-0.2957107,-0.7543422,-34.09452,23.83571,16.73573,1029.028
0.888170719,0.9952287,1.269737,-1.360691,0.613583,-0.2986116,-0.7544172,-34.09452,23.83571,16.73573,1029.028
0.890634537,0.8104033,1.269737,-1.360691,0.6169885,-0.2980882,-0.75588,-34.09452,23.83571,16.73573,1029.028
0.893098354,1.118446,1.446956,-1.543908,0.6130908,-0.2995745,-0.7568227,-34.09452,23.83571,16.73573,1029.028
0.895562649,1.118446,1.683249,-1.666054,0.6115956,-0.2985879,-0.7591975,-34.09452,23.83571,16.73573,1029.023
0.898027897,1.180054,1.742322,-1.727126,0.6135353,-0.2961479,-0.756788,-34.09452,23.83571,16.73573,1029.023
0.900490284,1.364879,1.919541,-1.727126,0.6115893,-0.2980989,-0.759192,-34.09452,23.83571,16.73573,1029.023
0.902954578,1.364879,2.27398,-1.788199,0.6169251,-0.2936795,-0.7567894,-34.09452,23.83571,16.73573,1029.023
0.905418396,1.426488,2.510273,-1.788199,0.6174582,-0.2970994,-0.7568325,-34.09452,23.83571,16.73573,1029.023
0.907883644,1.426488,2.805638,-2.093562,0.6190197,-0.30298,-0.7540334,-34.09452,23.83571,16.73573,1029.023
0.910346508,1.611313,2.805638,-1.971417,0.6204554,-0.296672,-0.7462984,-34.09452,23.83571,16.73573,1029.023
0.912810326,1.611313,2.923784,-1.971417,0.6174558,-0.2937244,-0.7505574,-34.46073,24.20885,17.11592,1029.023
0.915274143,1.611313,2.923784,-2.032489,0.6145794,-0.3005537,-0.7554072,-34.46073,24.20885,17.11592,1029.023
0.917738438,1.611313,3.278223,-1.971417,0.6179921,-0.297148,-0.7501208,-34.46073,24.20885,17.11592,1029.023
0.920202255,1.73453,3.337296,-2.215707,0.6186111,-0.3050025,-0.7458965,-34.46073,24.20885,17.11592,1029.023
0.922666073,1.857747,3.39637,-2.215707,0.6175157,-0.2990926,-0.7520577,-34.46073,24.20885,17.11592,1029.023
0.925130367,1.919356,3.632662,-2.27678,0.6215147,-0.3049492,-0.7502389,-34.46073,24.20885,17.11592,1029.023
0.927594185,2.042572,3.750808,-2.27678,0.618094,-0.3020829,-0.7444199,-34.46073,24.20885,17.11592,1029.023
0.930058479,1.980964,4.046174,-2.27678,0.6195983,-0.305007,-0.7444657,-34.46073,24.20885,17.11592,1029.023
0.932522297,1.980964,4.16432,-2.337852,0.617627,-0.3054834,-0.7478125,-34.46073,24.20885,17.11592,1029.023
0.934986114,2.165789,4.34154,-2.52107,0.618592,-0.3040171,-0.7468448,-34.46073,24.20885,17.11592,1029.023
0.937450409,2.165789,4.577832,-2.643215,0.6190105,-0.3010424,-0.7516127,-34.46073,24.20885,17.11592,1029.023
0.939914227,2.104181,4.755052,-2.643215,0.6195981,-0.3059703,-0.7463956,-34.46073,24.20885,17.11592,1029.023
0.942378044,2.165789,4.814125,-2.765361,0.6137258,-0.3079292,-0.7511649,-34.46073,24.20885,17.11592,1029.023
0.944842339,2.165789,5.050417,-2.765361,0.6171534,-0.3088766,-0.7521646,-34.46073,24.20885,17.11592,1029.023
0.947309494,2.165789,5.227636,-2.765361,0.6190172,-0.3000866,-0.7487233,-34.46073,24.20885,17.11592,1029.023
0.949769974,2.227398,5.463929,-2.948578,0.614669,-0.3035472,-0.7477653,-34.46073,24.20885,17.11592,1029.023
0.952234268,2.350615,5.463929,-3.131796,0.6146787,-0.3035584,-0.7463261,-34.46073,24.20885,17.11592,1029.023
0.954698086,2.350615,5.641149,-2.643215,0.6166716,-0.3069609,-0.7473412,-34.46073,24.20885,17.11592,1029.023
0.957166672,2.412223,5.818368,-2.704288,0.6142626,-0.3094264,-0.7468684,-34.46073,24.20885,17.11592,1029.023
0.959626198,2.227398,6.172807,-2.948578,0.6181731,-0.3079549,-0.7440069,-34.46073,24.20885,17.11592,1029.023
0.962090015,2.289006,6.290953,-2.887506,0.6254605,-0.3044818,-0.7440305,-34.09489,23.46848,16.35423,1029.023
0.964553833,2.350615,6.350026,-2.948578,0.6205345,-0.3025441,-0.7458854,-34.09489,23.46848,16.35423,1029.023
0.967018127,2.350615,6.527246,-3.009651,0.6190683,-0.3020725,-0.7449079,-34.09489,23.46848,16.35423,1029.023
0.969481945,2.412223,6.822611,-3.131796,0.6190877,-0.3020947,-0.7420297,-34.09489,23.46848,16.35423,1029.023
0.971945763,2.53544,6.881684,-3.070724,0.6205509,-0.3015994,-0.741557,-34.09489,23.46848,16.35423,1029.023
0.974410057,2.473832,6.99983,-3.070724,0.6229277,-0.2990968,-0.7468268,-34.09489,23.46848,16.35423,1029.02
0.976873875,2.597049,7.117977,-3.009651,0.6239594,-0.3020429,-0.7444699,-34.09489,23.46848,16.35423,1029.02
0.979337692,2.597049,7.117977,-3.192869,0.6263207,-0.2971136,-0.7473135,-34.09489,23.46848,16.35423,1029.02
0.981801987,2.597049,7.472415,-3.009651,0.6254098,-0.3010511,-0.7449511,-34.09489,23.46848,16.35423,1029.02
0.984269619,2.53544,7.708708,-2.948578,0.6298091,-0.3000579,-0.7430587,-34.09489,23.46848,16.35423,1029.02
0.986729622,2.53544,8.063147,-3.192869,0.6331893,-0.2970967,-0.7435343,-34.09489,23.46848,16.35423,1029.02
0.989193916,2.53544,8.063147,-3.315014,0.6293116,-0.2961972,-0.736774,-34.09489,23.46848,16.35423,1029.02
0.991657734,2.53544,7.826854,-3.192869,0.6298285,-0.2995985,-0.7392155,-34.09489,23.46848,16.35423,1029.02
0.994121552,2.658657,7.945,-3.009651,0.6302885,-0.2985986,-0.7416071,-34.09489,23.46848,16.35423,1029.02
0.996585846,2.658657,8.004074,-3.192869,0.6311994,-0.2946611,-0.7439695,-34.09489,23.46848,16.35423,1029.02
1.001513958,2.53544,8.417585,-3.131796,0.6371959,-0.2991078,-0.7330363,-34.09489,23.46848,16.35423,1029.02
1.003977776,2.658657,8.535732,-3.131796,0.6341743,-0.2932446,-0.7348635,-34.09489,23.46848,16.35423,1029.02
1.006441593,2.597049,8.535732,-3.131796,0.63763,-0.2980782,-0.7392656,-34.09489,23.46848,16.35423,1029.02
1.008905888,2.597049,8.535732,-3.131796,0.6386328,-0.3005093,-0.7402612,-34.09489,23.46848,16.35423,1029.02
1.011369705,2.53544,8.831097,-3.192869,0.6426108,-0.3005606,-0.7302207,-34.76704,24.21376,16.73397,1029.02
1.013833523,2.597049,8.949244,-3.070724,0.6421669,-0.3015791,-0.7254306,-34.76704,24.21376,16.73397,1029.021
1.016297817,2.53544,9.06739,-2.948578,0.6436844,-0.3030733,-0.7206628,-34.76704,24.21376,16.73397,1029.021
1.018761635,2.53544,9.126463,-2.887506,0.6431445,-0.3010908,-0.724474,-34.76704,24.21376,16.73397,1029.021
1.021225452,2.412223,9.185535,-3.131796,0.6386884,-0.2976827,-0.7263163,-34.76704,24.21376,16.73397,1029.021
1.023689747,2.597049,9.185535,-3.070724,0.6464741,-0.2946989,-0.7258701,-34.76704,24.21376,16.73397,1029.021
1.026153564,2.597049,9.185535,-2.948578,0.6435794,-0.2976531,-0.7258784,-34.76704,24.21376,16.73397,1029.021
1.028617382,2.473832,9.421829,-2.887506,0.6435637,-0.2961897,-0.725382,-34.76704,24.21376,16.73397,1029.021
1.031081676,2.473832,9.362755,-2.887506,0.6484299,-0.2922775,-0.7210619,-34.76704,24.21376,16.73397,1029.021
1.033545494,2.473832,9.303682,-2.765361,0.6479885,-0.2961894,-0.721582,-34.76704,24.21376,16.73397,1029.021
1.036009311,2.412223,9.599049,-2.765361,0.6455794,-0.298655,-0.7211092,-34.76704,24.21376,16.73397,1029.021
1.038473606,2.412223,9.480902,-2.765361,0.6470549,-0.3005825,-0.7235425,-34.76704,24.21376,16.73397,1029.021
1.040937423,2.473832,9.539974,-2.582143,0.6519754,-0.2986599,-0.7149273,-34.76704,24.21376,16.73397,1029.021
1.043401241,2.350615,9.480902,-2.643215,0.6519332,-0.2995749,-0.7230934,-34.76704,24.21376,16.73397,1029.021
1.045865536,2.350615,9.539974,-2.643215,0.6498445,-0.2926898,-0.7297147,-34.76704,24.21376,16.73397,1029.021
1.048329353,2.412223,9.480902,-2.459997,0.6454937,-0.293257,-0.7234466,-34.76704,24.21376,16.73397,1029.021
1.050793171,2.165789,9.599049,-2.398925,0.6510488,-0.3016156,-0.7130334,-34.76704,24.21376,16.73397,1029.021
1.053257465,2.412223,9.539974,-2.459997,0.6465637,-0.2976925,-0.7182282,-34.76704,24.21376,16.73397,1029.021
1.055721283,2.412223,9.599049,-2.52107,0.6534193,-0.2981423,-0.7173327,-34.76704,24.21376,16.73397,1029.021
1.058185100,2.227398,9.717194,-2.398925,0.6529285,-0.2938074,-0.7091236,-34.76704,24.21376,16.73397,1029.021
1.060645103,2.104181,9.717194,-2.337852,0.6534706,-0.2991649,-0.7115874,-34.76704,24.21376,16.73397,1029.021
1.063109398,1.980964,9.83534,-2.337852,0.6518384,-0.2922394,-0.72301,-34.76824,23.84651,15.97162,1029.021
1.065573215,2.104181,9.717194,-2.27678,0.6582571,-0.2922703,-0.7134701,-34.76824,23.84651,15.97162,1029.021
1.068037033,2.289006,9.776268,-2.093562,0.6602207,-0.2966026,-0.7207325,-34.76824,23.84651,15.97162,1029.021
1.070501327,2.165789,9.717194,-2.215707,0.6631734,-0.2937153,-0.7120894,-34.76824,23.84651,15.97162,1029.021
1.072968483,2.227398,9.776268,-2.154634,0.6611843,-0.28839,-0.7067348,-34.76824,23.84651,15.97162,1029.021
1.075428962,2.104181,9.717194,-1.971417,0.6632407,-0.2957196,-0.7058755,-34.76824,23.84651,15.97162,1029.021
1.077893257,1.980964,9.599049,-2.032489,0.6652656,-0.300604,-0.7049883,-34.76824,23.84651,15.97162,1029.021
1.080357075,2.104181,9.717194,-1.910344,0.6641577,-0.2927528,-0.7092085,-34.76824,23.84651,15.97162,1029.021
1.082820892,2.042572,9.599049,-1.849272,0.6627015,-0.2913291,-0.7048619,-34.76824,23.84651,15.97162,1029.021
1.085285187,2.042572,9.658121,-1.849272,0.6667074,-0.2952666,-0.6982239,-34.76824,23.84651,15.97162,1029.021
1.087749004,2.104181,9.658121,-1.849272,0.6681956,-0.2981723,-0.7006682,-34.76824,23.84651,15.97162,1029.021
1.090213299,1.919356,9.539974,-1.666054,0.6687001,-0.2996323,-0.7011688,-34.76824,23.84651,15.97162,1029.021
1.092677116,1.980964,9.303682,-1.604981,0.6750299,-0.29378,-0.6934811,-34.76824,23.84651,15.97162,1029.021
1.095140934,2.165789,9.362755,-1.666054,0.6745054,-0.2947058,-0.7006836,-34.76824,23.84651,15.97162,1029.023
1.097605228,1.919356,9.539974,-1.666054,0.6739758,-0.2903264,-0.6982309,-34.76824,23.84651,15.97162,1029.023
1.100069046,1.857747,9.24461,-1.482836,0.6775181,-0.2971866,-0.6935408,-34.76824,23.84651,15.97162,1029.023
1.102532863,1.73453,8.949244,-1.299618,0.6759309,-0.2903131,-0.6982476,-34.76824,23.84651,15.97162,1029.023
1.104997158,1.796139,9.06739,-1.1164,0.6780352,-0.3001063,-0.6950176,-34.76824,23.84651,15.97162,1029.023
1.107460975,1.857747,8.949244,-1.299618,0.6784034,-0.2922562,-0.697811,-34.76824,23.84651,15.97162,1029.023
1.109924793,1.796139,8.831097,-1.1164,0.6788477,-0.2893113,-0.6987413,-34.76824,23.84651,15.97162,1029.023
1.112389087,1.549705,8.772024,-1.177473,0.6784172,-0.2888998,-0.6891374,-34.76824,23.84651,15.97162,1029.023
1.114852905,1.672922,8.712952,-1.177473,0.678391,-0.290315,-0.69587,-34.76824,23.84651,15.97162,1029.023
1.117316723,1.488096,8.772024,-1.1164,0.6833329,-0.2932344,-0.6935465,-34.76824,23.84651,15.97162,1029.023
1.119781017,1.611313,8.476658,-1.055328,0.6833551,-0.2947052,-0.6930834,-34.76824,23.84651,15.97162,1029.023
1.122244835,1.549705,8.535732,-0.7499648,0.6838471,-0.2947056,-0.6926079,-34.76824,23.84651,15.97162,1029.023
1.124708652,1.364879,8.240366,-0.5056744,0.6873162,-0.297146,-0.6902664,-34.76824,23.84651,15.97162,1029.023
1.127172947,1.426488,8.181293,-0.6888922,0.6833714,-0.2942421,-0.68972,-34.76824,23.84651,15.97162,1029.023
1.129636764,1.303271,7.885928,-0.566747,0.6872815,-0.2942155,-0.6897534,-34.76824,23.84651,15.97162,1029.023
1.132100582,1.364879,7.826854,-0.6278196,0.688294,-0.2966577,-0.6893098,-34.76824,23.84651,15.97162,1029.023
1.134564876,1.426488,7.708708,-0.6888922,0.6897477,-0.2956697,-0.6893112,-34.76824,23.84651,15.97162,1029.02
1.137028694,1.303271,7.413342,-0.3835292,0.6912366,-0.2956857,-0.6859658,-34.76824,23.84651,15.97162,1029.02
1.139492512,1.118446,7.295196,-0.4446018,0.6916903,-0.2937151,-0.6873868,-34.76824,23.84651,15.97162,1029.02
1.141956806,0.9952287,7.17705,-0.3224566,0.6931699,-0.2927567,-0.6835507,-34.76824,23.84651,15.97162,1029.02
1.144420624,1.118446,6.881684,-0.2003114,0.6955916,-0.2912692,-0.6840345,-34.76824,23.84651,15.97162,1029.02
1.146884441,0.9336203,6.822611,-0.1392388,0.6945912,-0.2922131,-0.689314,-34.76824,23.84651,15.97162,1029.02
1.149348736,0.8720118,6.822611,-0.1392388,0.6941216,-0.2927203,-0.6873966,-34.76824,23.84651,15.97162,1029.02
1.151812553,0.7487949,6.468172,-0.1392388,0.6951501,-0.2956627,-0.6855195,-34.76824,23.84651,15.97162,1029.02
1.154276371,0.7487949,6.290953,0.1661242,0.6938117,-0.299674,-0.6740385,-34.76824,23.84651,15.97162,1029.02
1.156740665,0.7487949,6.172807,0.043979,0.695795,-0.3030654,-0.6764926,-34.76824,23.84651,15.97162,1029.02
1.159204483,0.7487949,5.818368,0.043979,0.6991432,-0.2991038,-0.6798353,-34.76824,23.84651,15.97162,1029.02
1.161668777,0.5639695,5.818368,0.043979,0.696173,-0.2947448,-0.676882,-34.76824,23.84651,15.97162,1029.02
1.164132595,0.5639695,5.641149,0.2271968,0.6996352,-0.2991042,-0.6793597,-35.50319,23.8583,15.14383,1029.02
1.166596412,0.5023611,5.404856,0.2882694,0.698674,-0.2981662,-0.675023,-35.50319,23.8583,15.14383,1029.02
1.169060707,0.4407526,5.168563,0.4104146,0.6987814,-0.3069614,-0.6760824,-35.50319,23.8583,15.14383,1029.02
1.173988342,0.1943187,4.873198,0.349342,0.6997685,-0.3074475,-0.6756166,-35.50319,23.8583,15.14383,1029.021
1.176452637,0.1943187,4.695979,0.5325598,0.7046437,-0.3064361,-0.6756472,-35.50319,23.8583,15.14383,1029.021
1.178916454,0.1327103,4.223393,0.4714872,0.7036287,-0.3015821,-0.6717457,-35.50319,23.8583,15.14383,1029.021
1.181380272,-0.1137236,4.16432,0.5325598,0.705117,-0.3040062,-0.673225,-35.50319,23.8583,15.14383,1029.021
1.183844566,0.009493358,3.987101,0.5936324,0.7045676,-0.3015309,-0.6775104,-35.50319,23.8583,15.14383,1029.021
1.186308384,-0.05211511,3.632662,0.5936324,0.7055869,-0.3020541,-0.6722476,-35.50319,23.8583,15.14383,1029.021
1.188772201,-0.175332,3.455443,0.4714872,0.7041808,-0.3059875,-0.6708404,-35.50319,23.8583,15.14383,1029.021
1.191236496,-0.2369405,3.041931,0.4714872,0.7051936,-0.3069849,-0.6675019,-35.50319,23.8583,15.14383,1029.021
1.193700313,-0.2985489,2.864712,0.654705,0.7036505,-0.3044978,-0.6741775,-35.50319,23.8583,15.14383,1029.021
1.196167469,-0.2985489,2.805638,0.7768502,0.7041988,-0.3113075,-0.6785768,-35.50319,23.8583,15.14383,1029.021
1.198628425,-0.2985489,2.392126,0.7768502,0.7100712,-0.3088669,-0.6728426,-35.50319,23.8583,15.14383,1029.021
1.201092243,-0.4217659,2.27398,0.8989954,0.7071417,-0.3088906,-0.6723379,-35.50319,23.8583,15.14383,1029.021
1.203556061,-0.6065912,2.037688,0.960068,0.7017173,-0.3069451,-0.6756277,-35.50319,23.8583,15.14383,1029.021
1.206020355,-0.6681997,1.801395,0.8379228,0.7051802,-0.3088965,-0.6732806,-35.50319,23.8583,15.14383,1029.021
1.208484173,-0.6065912,1.801395,0.8379228,0.7065839,-0.3020697,-0.6693777,-35.50319,23.8583,15.14383,1029.021
1.210947990,-0.5449828,1.32881,0.8379228,0.7051621,-0.3040581,-0.6665092,-35.50319,23.8583,15.14383,1029.021
1.213412285,-0.8530251,1.033445,0.960068,0.7071199,-0.3059749,-0.6699061,-34.76958,23.47927,15.1458,1029.021
1.215876102,-0.8530251,0.9743713,1.265431,0.7032034,-0.3055125,-0.6698672,-34.76958,23.47927,15.1458,1029.016
1.218339920,-0.7914166,0.6790057,1.326504,0.7051553,-0.3054955,-0.6703635,-34.76958,23.47927,15.1458,1029.016
1.220804214,-1.099459,0.4427132,1.204358,0.7041908,-0.3050354,-0.6674713,-34.76958,23.47927,15.1458,1029.016
1.223268032,-1.099459,0.2654938,1.082213,0.7037397,-0.3089361,-0.6694305,-34.76958,23.47927,15.1458,1029.016
1.225731849,-1.099459,-0.02987185,1.143286,0.7041994,-0.3088994,-0.673752,-34.76958,23.47927,15.1458,1029.016
1.228196144,-1.161067,-0.2661644,1.326504,0.7026668,-0.3035337,-0.6731986,-34.76958,23.47927,15.1458,1029.016
1.230659962,-1.284284,-0.56153,1.326504,0.6997756,-0.3050468,-0.6698323,-34.76958,23.47927,15.1458,1029.016
1.233124256,-1.284284,-0.6796762,1.265431,0.7022673,-0.3074939,-0.6674825,-34.76958,23.47927,15.1458,1029.016
1.235592842,-1.284284,-0.9159687,1.326504,0.7061329,-0.3054889,-0.6703719,-34.76958,23.47927,15.1458,1029.016
1.238051891,-1.345893,-1.152261,1.265431,0.7042123,-0.3089143,-0.6718332,-34.76958,23.47927,15.1458,1029.016
1.240516186,-1.345893,-1.270407,1.448649,0.6968016,-0.3026105,-0.6712186,-34.76958,23.47927,15.1458,1029.016
1.242980003,-1.407501,-1.565773,1.509722,0.69677,-0.3001653,-0.6711909,-34.76958,23.47927,15.1458,1029.016
1.245443821,-1.530718,-1.861139,1.570794,0.701229,-0.3055036,-0.6727287,-34.76958,23.47927,15.1458,1029.016
1.247908115,-1.653935,-2.038358,1.570794,0.7012288,-0.3059852,-0.6736936,-34.76958,23.47927,15.1458,1029.016
1.250371933,-1.653935,-2.215578,1.448649,0.6996673,-0.3001046,-0.6764926,-34.76958,23.47927,15.1458,1029.016
1.252835750,-1.715544,-2.333724,1.876157,0.6977031,-0.2976986,-0.6730902,-34.76958,23.47927,15.1458,1029.016
1.255300045,-1.653935,-2.392797,1.754012,0.6968114,-0.30214,-0.6688146,-34.76958,23.47927,15.1458,1029.017
1.257763862,-1.653935,-2.629089,1.692939,0.6982489,-0.301615,-0.6721795,-34.76958,23.47927,15.1458,1029.017
1.260223865,-1.715544,-2.924455,1.815084,0.6968044,-0.3040591,-0.6736338,-34.76958,23.47927,15.1458,1029.017
1.262687683,-1.900369,-3.101675,1.815084,0.6963471,-0.3074708,-0.6755874,-34.76958,23.47927,15.1458,1029.017
1.265151977,-1.900369,-3.337967,1.754012,0.6923419,-0.3006435,-0.6764356,-35.50355,23.49108,14.76233,1029.017
1.267615795,-1.900369,-3.456113,1.815084,0.6914339,-0.3060295,-0.6764884,-35.50355,23.49108,14.76233,1029.017
1.270079613,-2.023586,-3.692406,1.93723,0.6933734,-0.3040712,-0.6750438,-35.50355,23.49108,14.76233,1029.017
1.272543907,-2.023586,-3.751479,1.876157,0.6913989,-0.3040623,-0.6779053,-35.50355,23.49108,14.76233,1029.017
1.275007725,-1.900369,-3.928698,1.692939,0.6952679,-0.3015794,-0.67935,-35.50355,23.49108,14.76233,1029.017
1.277471542,-2.085194,-4.224064,1.815084,0.6889075,-0.300652,-0.6783252,-35.50355,23.49108,14.76233,1029.017
1.279935837,-2.085194,-4.224064,1.876157,0.6894274,-0.3050203,-0.6822171,-35.50355,23.49108,14.76233,1029.017
1.282399654,-2.023586,-4.401283,1.93723,0.6913764,-0.3035547,-0.6802982,-35.50355,23.49108,14.76233,1029.017
1.284863472,-2.085194,-4.578503,1.998302,0.68892,-0.3021117,-0.6793013,-35.50355,23.49108,14.76233,1029.017
1.287327766,-2.146803,-4.637576,1.998302,0.6854401,-0.303513,-0.6908016,-35.50355,23.49108,14.76233,1029.017
1.289791584,-2.27002,-4.932941,2.059375,0.6888109,-0.2995774,-0.6907864,-35.50355,23.49108,14.76233,1029.017
1.292255401,-2.393237,-5.051088,2.059375,0.6849362,-0.2996449,-0.6854763,-35.50355,23.49108,14.76233,1029.017
1.294719696,-2.146803,-5.228307,2.18152,0.6869197,-0.3020731,-0.6860005,-35.50355,23.49108,14.76233,1029.018
1.297183513,-2.208411,-5.28738,2.059375,0.6845041,-0.3054944,-0.688417,-35.50355,23.49108,14.76233,1029.018
1.299647331,-2.208411,-5.28738,2.120447,0.6843709,-0.2966695,-0.6911952,-35.50355,23.49108,14.76233,1029.018
1.302111626,-2.331628,-5.523673,2.059375,0.6834384,-0.2972097,-0.685436,-35.50355,23.49108,14.76233,1029.018
1.304575443,-2.393237,-5.700892,2.120447,0.6829622,-0.2981911,-0.6854429,-35.50355,23.49108,14.76233,1029.018
1.307039261,-2.331628,-5.819038,2.242593,0.6824436,-0.3010508,-0.6955459,-35.50355,23.49108,14.76233,1029.018
1.309505462,-2.393237,-5.878111,2.18152,0.6799745,-0.2986296,-0.6945379,-35.50355,23.49108,14.76233,1029.018
1.311967373,-2.393237,-5.937185,2.303665,0.6800539,-0.3035385,-0.6921948,-35.50355,23.49108,14.76233,1029.018
1.314431190,-2.454845,-5.700892,2.18152,0.6741471,-0.3016038,-0.6945211,-35.13531,23.48521,15.52535,1029.018
1.316895485,-2.454845,-5.996258,2.18152,0.675661,-0.3050207,-0.6940928,-35.13531,23.48521,15.52535,1029.018
1.319359302,-2.393237,-6.23255,2.242593,0.6756829,-0.3074548,-0.6955597,-35.13531,23.48521,15.52535,1029.018
1.321823597,-2.393237,-6.23255,2.18152,0.6721309,-0.301065,-0.7026538,-35.13531,23.48521,15.52535,1029.018
1.324287414,-2.516454,-6.114404,2.364738,0.6657601,-0.3030162,-0.708858,-35.13531,23.48521,15.52535,1029.018
1.326751232,-2.393237,-6.291624,2.120447,0.6702273,-0.3011377,-0.6949619,-35.13531,23.48521,15.52535,1029.018
1.329215526,-2.393237,-6.291624,2.242593,0.6687156,-0.302059,-0.7035951,-35.13531,23.48521,15.52535,1029.018
1.331679344,-2.331628,-6.173477,2.18152,0.668696,-0.3029999,-0.7084033,-35.13531,23.48521,15.52535,1029.018
1.334143162,-2.331628,-6.23255,2.242593,0.6682556,-0.3030589,-0.7012036,-35.13531,23.48521,15.52535,1029.013
1.336607456,-2.331628,-6.291624,2.18152,0.6663037,-0.3030759,-0.7007071,-35.13531,23.48521,15.52535,1029.013
1.339071274,-2.331628,-6.40977,2.242593,0.6618445,-0.2991825,-0.7020643,-35.13531,23.48521,15.52535,1029.013
1.343999386,-2.27002,-6.23255,2.120447,0.6618918,-0.3030911,-0.7025884,-35.13531,23.48521,15.52535,1029.013
1.346467972,-2.146803,-6.173477,2.120447,0.6602852,-0.2966768,-0.7111384,-35.13531,23.48521,15.52535,1029.013
1.348927021,-2.085194,-6.173477,2.120447,0.6607925,-0.300067,-0.715019,-35.13531,23.48521,15.52535,1029.013
1.351392269,-2.146803,-6.23255,2.242593,0.6583868,-0.3020547,-0.7131016,-35.13531,23.48521,15.52535,1029.013
1.353855133,-2.208411,-6.114404,2.120447,0.654953,-0.2996551,-0.7101664,-35.13531,23.48521,15.52535,1029.013
1.356318951,-2.331628,-6.173477,2.059375,0.6564221,-0.3015752,-0.713559,-35.13531,23.48521,15.52535,1029.013
1.358783245,-2.331628,-6.23255,1.998302,0.6558856,-0.2986332,-0.7149606,-35.13531,23.48521,15.52535,1029.013
1.361248970,-2.146803,-6.114404,2.059375,0.6504869,-0.2971991,-0.7153778,-35.13531,23.48521,15.52535,1029.013
1.363710880,-2.208411,-5.996258,1.998302,0.6485443,-0.2986721,-0.7163371,-34.76874,23.47929,15.52665,1029.013
1.366175175,-2.023586,-5.937185,2.059375,0.6549336,-0.2996328,-0.7130446,-34.76874,23.47929,15.52665,1029.013
1.368638992,-1.900369,-5.878111,2.059375,0.6524097,-0.2976303,-0.7211565,-34.76874,23.47929,15.52665,1029.013
1.371102810,-2.208411,-5.819038,1.998302,0.6529333,-0.3000758,-0.7207087,-34.76874,23.47929,15.52665,1029.013
1.373570919,-2.023586,-5.523673,2.059375,0.6520001,-0.3030241,-0.7197742,-34.76874,23.47929,15.52665,1029.014
1.376030922,-1.961977,-5.582746,1.93723,0.6504927,-0.3000962,-0.7202081,-34.76874,23.47929,15.52665,1029.014
1.378494739,-1.83876,-5.523673,1.876157,0.6490384,-0.3030107,-0.7240666,-34.76874,23.47929,15.52665,1029.014
1.380959034,-1.83876,-5.4646,1.93723,0.6464899,-0.2961623,-0.7263665,-34.76874,23.47929,15.52665,1029.014
1.383428097,-1.653935,-5.346453,1.93723,0.6441757,-0.3059633,-0.725977,-34.76874,23.47929,15.52665,1029.014
1.385886669,-1.592327,-5.228307,1.93723,0.6416425,-0.3020232,-0.7316682,-34.76874,23.47929,15.52665,1029.014
1.388350963,-1.83876,-4.992014,1.631867,0.642103,-0.2990968,-0.7301999,-34.76874,23.47929,15.52665,1029.014
1.390814781,-1.961977,-5.051088,1.754012,0.6402968,-0.3098799,-0.7288663,-34.76874,23.47929,15.52665,1029.014
1.393279075,-1.777152,-5.051088,1.754012,0.6436264,-0.3030065,-0.7292975,-34.76874,23.47929,15.52665,1029.014
1.395748138,-1.715544,-4.637576,1.631867,0.6416514,-0.304924,-0.7360189,-34.76874,23.47929,15.52665,1029.014
1.398206711,-1.653935,-4.460356,1.631867,0.6382393,-0.3064032,-0.7374454,-34.76874,23.47929,15.52665,1029.014
1.400671005,-1.46911,-4.460356,1.570794,0.6352815,-0.3035039,-0.7354683,-34.76874,23.47929,15.52665,1029.014
1.403134823,-1.592327,-4.16499,1.448649,0.6373129,-0.3079141,-0.7326567,-34.76874,23.47929,15.52665,1029.014
1.405598640,-1.592327,-3.987771,1.387576,0.6357355,-0.3010517,-0.7359244,-34.76874,23.47929,15.52665,1029.014
1.408062935,-1.653935,-3.869625,1.509722,0.6396453,-0.3024699,-0.7388526,-34.76874,23.47929,15.52665,1029.014
1.410526752,-1.284284,-3.692406,1.326504,0.6332276,-0.2985861,-0.7406728,-34.76874,23.47929,15.52665,1029.014
1.412990570,-1.46911,-3.515186,1.265431,0.6293866,-0.3054369,-0.7435954,-34.76874,23.47929,15.52665,1029.014
1.415454864,-1.284284,-3.219821,1.326504,0.6264416,-0.3035156,-0.7416293,-35.13531,23.48521,15.52535,1029.01
1.417918682,-1.222676,-3.160748,1.143286,0.6284285,-0.3054658,-0.7407088,-35.13531,23.48521,15.52535,1029.01
1.420382500,-0.9762421,-3.101675,1.021141,0.6294757,-0.3103569,-0.7398133,-35.13531,23.48521,15.52535,1029.01
1.422846794,-0.8530251,-2.806309,0.7768502,0.627422,-0.3049574,-0.7440528,-35.13531,23.48521,15.52535,1029.01
1.425310612,-0.8530251,-2.510943,0.7157776,0.6288539,-0.3010538,-0.7416224,-35.13531,23.48521,15.52535,1029.01
1.427774429,-0.7914166,-2.392797,0.7768502,0.6259435,-0.302063,-0.7401693,-35.13531,23.48521,15.52535,1029.01
1.430238724,-0.8530251,-2.038358,0.654705,0.6289172,-0.3059441,-0.7416779,-35.13531,23.48521,15.52535,1029.01
1.432702541,-0.7298082,-1.979285,0.4714872,0.625886,-0.3000697,-0.7449441,-35.13531,23.48521,15.52535,1029.01
1.435171127,-0.7298082,-1.624846,0.5325598,0.624975,-0.3044888,-0.7435467,-35.13531,23.48521,15.52535,1029.01
1.437630653,-0.6065912,-1.329481,0.349342,0.6259211,-0.3015554,-0.7425623,-35.13531,23.48521,15.52535,1029.01
1.440094471,-0.6065912,-1.093188,0.2882694,0.6279147,-0.3025498,-0.7387524,-35.13531,23.48521,15.52535,1029.01
1.442558288,-0.3601574,-0.9159687,0.2882694,0.6220359,-0.3045014,-0.744481,-35.13531,23.48521,15.52535,1029.01
1.445022583,-0.2985489,-0.6796762,0.1050516,0.6234664,-0.3058954,-0.7526652,-35.13531,23.48521,15.52535,1029.01
1.447491169,-0.2985489,-0.5024568,0.043979,0.624432,-0.302021,-0.7468727,-35.13531,23.48521,15.52535,1029.01
1.449950218,-0.175332,-0.2070912,-0.0781662,0.623435,-0.302487,-0.7507075,-35.13531,23.48521,15.52535,1029.01
1.452414513,-0.1137236,-0.08894497,-0.2003114,0.6258984,-0.302011,-0.7468852,-35.13531,23.48521,15.52535,1029.01
1.454878330,0.1327103,0.2654938,-0.3835292,0.6245178,-0.3069373,-0.7435703,-35.13531,23.48521,15.52535,1029.01
1.457342148,0.1943187,0.6199326,-0.3835292,0.6274408,-0.3073878,-0.7459994,-35.13531,23.48521,15.52535,1029.01
1.459802151,0.1943187,0.7971519,-0.3835292,0.6248724,-0.301962,-0.7540724,-35.13531,23.48521,15.52535,1029.01
1.462266445,0.1327103,0.9743713,-0.4446018,0.6313387,-0.3049382,-0.7431268,-35.13531,23.48521,15.52535,1029.01
1.464730263,0.3791441,1.210664,-0.566747,0.6273552,-0.3015083,-0.7473719,-35.50054,23.85838,16.34987,1029.01
1.467194080,0.5023611,1.210664,-0.7499648,0.6259466,-0.3025483,-0.7406546,-35.50054,23.85838,16.34987,1029.01
1.469658375,0.5023611,1.446956,-0.6888922,0.627917,-0.3059247,-0.7450275,-35.50054,23.85838,16.34987,1029.01
1.472124100,0.6871864,1.742322,-0.8721099,0.6303421,-0.3034778,-0.7431018,-35.50054,23.85838,16.34987,1029.01
1.474586487,0.5639695,1.978615,-0.7499648,0.6323138,-0.3020383,-0.737825,-35.50054,23.85838,16.34987,1029.01
1.477050304,0.6255779,2.214907,-0.7499648,0.6312565,-0.2985808,-0.7430546,-35.50054,23.85838,16.34987,1029.01
1.479514122,0.8720118,2.392126,-1.055328,0.6273429,-0.2990854,-0.7444658,-35.50054,23.85838,16.34987,1029.01
1.481978416,0.8720118,2.569346,-1.1164,0.6342854,-0.3005986,-0.7325483,-35.50054,23.85838,16.34987,1029.01
1.484442711,0.9336203,2.805638,-1.238546,0.631803,-0.2996075,-0.736354,-35.50054,23.85838,16.34987,1029.01
1.486906052,1.056837,2.864712,-1.177473,0.6302854,-0.2981133,-0.7411218,-35.50054,23.85838,16.34987,1029.01
1.489370346,1.180054,3.21915,-1.299618,0.6342373,-0.2990981,-0.736849,-35.50054,23.85838,16.34987,1029.01
1.491834164,1.180054,3.337296,-1.543908,0.6361225,-0.2956319,-0.7406644,-35.50054,23.85838,16.34987,1029.01
1.494297981,1.364879,3.455443,-1.482836,0.6386998,-0.3034769,-0.7359772,-35.50054,23.85838,16.34987,1029.008
1.496762276,1.426488,3.573589,-1.482836,0.6367362,-0.2986629,-0.7277499,-35.50054,23.85838,16.34987,1029.008
1.499229431,1.549705,3.691735,-1.543908,0.6386816,-0.2991201,-0.7301707,-35.50054,23.85838,16.34987,1029.008
1.501689911,1.426488,3.987101,-1.604981,0.6386653,-0.2995832,-0.7335342,-35.50054,23.85838,16.34987,1029.008
1.504154205,1.426488,3.868955,-1.604981,0.6449535,-0.2927194,-0.7301527,-35.50054,23.85838,16.34987,1029.008
1.506618023,1.549705,4.105247,-1.727126,0.6439884,-0.2941857,-0.7311204,-35.50054,23.85838,16.34987,1029.008
1.509084225,1.73453,4.282466,-1.849272,0.6445029,-0.2942121,-0.727287,-35.50054,23.85838,16.34987,1029.008
1.511546135,1.857747,4.400613,-1.788199,0.6493997,-0.2970796,-0.7316793,-35.50054,23.85838,16.34987,1029.008
1.516473770,1.73453,4.518759,-1.849272,0.6464745,-0.2932541,-0.7229753,-34.46106,23.16841,16.3524,1029.008
1.518938064,1.672922,4.695979,-1.849272,0.6503208,-0.2912268,-0.7287428,-34.46106,23.16841,16.3524,1029.008
1.521401882,1.857747,4.814125,-1.910344,0.6479722,-0.2966525,-0.7249454,-34.46106,23.16841,16.3524,1029.008
1.523865700,2.042572,4.991344,-1.849272,0.6533652,-0.2951896,-0.7196979,-34.46106,23.16841,16.3524,1029.008
1.526329994,1.980964,4.873198,-1.910344,0.6513944,-0.2937395,-0.7191848,-34.46106,23.16841,16.3524,1029.008
1.528793812,2.104181,5.050417,-1.910344,0.6548695,-0.2981138,-0.7197437,-34.46106,23.16841,16.3524,1029.008
1.531257629,2.165789,5.10949,-1.910344,0.6573266,-0.2971487,-0.7159159,-34.46106,23.16841,16.3524,1029.008
1.533721924,1.980964,5.050417,-2.093562,0.657834,-0.3000574,-0.7188316,-34.46106,23.16841,16.3524,1029.01
1.536185741,2.165789,5.227636,-2.093562,0.6617,-0.2966075,-0.7188261,-34.46106,23.16841,16.3524,1029.01
1.538649559,2.227398,5.227636,-2.032489,0.6597168,-0.2927346,-0.7154071,-34.46106,23.16841,16.3524,1029.01
1.541113853,2.165789,5.10949,-2.032489,0.6569014,-0.3010792,-0.7140374,-34.46106,23.16841,16.3524,1029.01
1.543577671,2.104181,5.345783,-1.910344,0.6641693,-0.2980654,-0.7179042,-34.46106,23.16841,16.3524,1029.01
1.546041965,2.165789,5.523002,-1.849272,0.6656363,-0.2951657,-0.712127,-34.46106,23.16841,16.3524,1029.01
1.548505783,2.412223,5.10949,-2.032489,0.6627154,-0.299535,-0.7188678,-34.46106,23.16841,16.3524,1029.01
1.550969601,2.350615,5.227636,-2.215707,0.6656393,-0.2961326,-0.7135772,-34.46106,23.16841,16.3524,1029.01
1.553433895,2.042572,5.463929,-2.154634,0.6676131,-0.2985497,-0.7155405,-34.46106,23.16841,16.3524,1029.01
1.555897713,2.227398,5.463929,-2.032489,0.6680892,-0.2980499,-0.7164985,-34.46106,23.16841,16.3524,1029.01
1.558361530,2.289006,5.345783,-2.154634,0.6681498,-0.3005284,-0.712209,-34.46106,23.16841,16.3524,1029.01
1.560825825,2.289006,5.404856,-2.154634,0.6686613,-0.3000694,-0.7078903,-34.46106,23.16841,16.3524,1029.01
1.563289642,2.227398,5.404856,-2.215707,0.6691088,-0.2976098,-0.7093058,-34.46106,23.16841,16.3524,1029.01
1.565753460,2.227398,5.345783,-2.27678,0.66816,-0.2986131,-0.70691,-35.13433,23.48524,15.96968,1029.01
1.568217754,2.165789,5.28671,-2.215707,0.6672013,-0.3005685,-0.7078834,-35.13433,23.48524,15.96968,1029.01
1.570685387,2.350615,5.345783,-2.215707,0.6672424,-0.3035063,-0.7074369,-35.13433,23.48524,15.96968,1029.01
1.573145389,2.289006,5.345783,-2.215707,0.6720603,-0.2995386,-0.7103124,-35.13433,23.48524,15.96968,1029.01
1.575609684,2.289006,5.463929,-2.337852,0.6725937,-0.3015136,-0.7074605,-35.13433,23.48524,15.96968,1029.009
1.578073501,2.289006,5.28671,-2.154634,0.667716,-0.3001132,-0.7030848,-35.13433,23.48524,15.96968,1029.009
1.580537319,2.350615,5.050417,-2.093562,0.6648178,-0.3040269,-0.7055027,-35.13433,23.48524,15.96968,1029.009
1.583002090,2.227398,5.227636,-2.27678,0.66829,-0.3074342,-0.7046115,-35.13433,23.48524,15.96968,1029.009
1.585465431,2.165789,5.463929,-2.337852,0.6682327,-0.3039961,-0.7064914,-35.13433,23.48524,15.96968,1029.009
1.587929249,2.227398,5.345783,-2.27678,0.6706867,-0.3025458,-0.7021782,-35.13433,23.48524,15.96968,1029.009
1.590393543,2.227398,5.404856,-2.154634,0.6711435,-0.3015421,-0.7050495,-35.13433,23.48524,15.96968,1029.009
1.592857361,2.227398,5.227636,-2.27678,0.6706929,-0.3035164,-0.7031488,-35.13433,23.48524,15.96968,1029.009
1.595321178,2.227398,5.28671,-2.398925,0.665373,-0.3089176,-0.7050828,-35.13433,23.48524,15.96968,1029.009
1.597785473,2.412223,5.227636,-2.52107,0.6687472,-0.3045042,-0.7036229,-35.13433,23.48524,15.96968,1029.009
1.600249290,2.289006,5.28671,-2.337852,0.6682616,-0.3045112,-0.703139,-35.13433,23.48524,15.96968,1029.009
1.602714062,2.165789,5.28671,-2.154634,0.6648968,-0.3103806,-0.7060547,-35.13433,23.48524,15.96968,1029.009
1.605177402,2.227398,5.345783,-2.398925,0.6722292,-0.307441,-0.7003275,-35.13433,23.48524,15.96968,1029.009
1.607641220,2.227398,5.28671,-2.337852,0.6722103,-0.3059739,-0.7003108,-35.13433,23.48524,15.96968,1029.009
1.610105991,2.104181,5.28671,-2.398925,0.6682584,-0.3045075,-0.7036187,-35.13433,23.48524,15.96968,1029.009
1.612569809,2.227398,5.28671,-2.337852,0.6696838,-0.3010779,-0.7031127,-35.13433,23.48524,15.96968,1029.009
1.615034103,2.042572,5.28671,-2.215707,0.6716931,-0.3035357,-0.6997992,-35.86844,23.49705,15.52274,1029.01
1.617496967,1.980964,5.28671,-2.337852,0.6745976,-0.3001111,-0.6973868,-35.86844,23.49705,15.52274,1029.01
1.619961738,2.165789,5.227636,-2.459997,0.6717067,-0.3011425,-0.6930555,-35.86844,23.49705,15.52274,1029.01
1.622426033,2.165789,5.168563,-2.337852,0.6731185,-0.2996246,-0.6983281,-35.86844,23.49705,15.52274,1029.01
1.624889851,2.104181,5.168563,-2.398925,0.6770093,-0.2995757,-0.7012398,-35.86844,23.49705,15.52274,1029.01
1.627353668,2.227398,5.10949,-2.459997,0.6765938,-0.3030357,-0.6969572,-35.86844,23.49705,15.52274,1029.01
1.629817963,2.042572,5.227636,-2.337852,0.6721032,-0.2962155,-0.6973215,-35.86844,23.49705,15.52274,1029.01
1.632281780,1.980964,5.10949,-2.337852,0.6761376,-0.3021129,-0.690226,-35.86844,23.49705,15.52274,1029.01
1.634745598,2.104181,5.168563,-2.215707,0.6794767,-0.2962138,-0.6911479,-35.86844,23.49705,15.52274,1029.01
1.637209892,1.919356,4.991344,-2.337852,0.6765436,-0.2976786,-0.6940178,-35.86844,23.49705,15.52274,1029.01
1.639673710,1.980964,4.932271,-2.093562,0.676623,-0.3025874,-0.6916748,-35.86844,23.49705,15.52274,1029.01
1.642137527,1.919356,4.991344,-1.971417,0.6839553,-0.3006111,-0.6878775,-35.86844,23.49705,15.52274,1029.01
1.644601822,1.919356,4.755052,-2.215707,0.6819875,-0.2996463,-0.6878497,-35.86844,23.49705,15.52274,1029.01
1.647065639,1.73453,4.755052,-2.215707,0.6834919,-0.3020889,-0.6869307,-35.86844,23.49705,15.52274,1029.01
1.649529457,1.672922,4.755052,-1.910344,0.6859331,-0.3001421,-0.6835714,-35.86844,23.49705,15.52274,1029.01
1.651993751,1.73453,4.577832,-1.910344,0.687428,-0.3016104,-0.6821615,-35.86844,23.49705,15.52274,1029.01
1.654457569,1.73453,4.400613,-1.727126,0.6869266,-0.3006356,-0.6821462,-35.86844,23.49705,15.52274,1029.011
1.656921387,1.611313,4.16432,-1.604981,0.6863906,-0.2962488,-0.6806529,-35.86844,23.49705,15.52274,1029.011
1.659385681,1.426488,4.105247,-1.543908,0.6893677,-0.2991704,-0.6797518,-35.86844,23.49705,15.52274,1029.011
1.661845684,1.488096,4.16432,-1.543908,0.6893234,-0.2957472,-0.6797129,-35.86844,23.49705,15.52274,1029.011
1.664309502,1.426488,3.987101,-1.421763,0.6902808,-0.2986079,-0.6883893,-35.86844,23.49705,15.52274,1029.011
1.666773319,1.426488,3.868955,-1.482836,0.6947194,-0.2952512,-0.6759157,-35.50231,23.18511,15.14266,1029.011
1.669237614,1.364879,3.750808,-1.360691,0.694234,-0.2947766,-0.6744668,-35.50231,23.18511,15.14266,1029.011
1.671701431,1.241663,3.39637,-1.177473,0.6936943,-0.2923126,-0.677313,-35.50231,23.18511,15.14266,1029.011
1.674165249,1.180054,3.39637,-1.1164,0.6947023,-0.2990856,-0.6860339,-35.50231,23.18511,15.14266,1029.011
1.676629543,1.056837,3.337296,-0.9942551,0.6967625,-0.3040108,-0.6798699,-35.50231,23.18511,15.14266,1029.011
1.679093361,0.9952287,3.160077,-1.1164,0.6932464,-0.296217,-0.6787924,-35.50231,23.18511,15.14266,1029.011
1.681557178,0.9336203,2.982858,-0.9942551,0.6928115,-0.2996547,-0.6773881,-35.50231,23.18511,15.14266,1029.011
1.686485290,0.6871864,2.628419,-0.6278196,0.7000927,-0.2956925,-0.6774062,-35.50231,23.18511,15.14266,1029.011
1.688949108,0.6871864,2.392126,-0.6278196,0.6923042,-0.2967461,-0.6744723,-35.50231,23.18511,15.14266,1029.011
1.691413402,0.8720118,2.4512,-0.566747,0.6948306,-0.3021237,-0.6726355,-35.50231,23.18511,15.14266,1029.011
1.693877220,0.6255779,2.155834,-0.5056744,0.6987156,-0.2996593,-0.6716817,-35.50231,23.18511,15.14266,1029.009
1.696341515,0.5023611,1.860468,-0.3835292,0.6966972,-0.2947823,-0.6716095,-35.50231,23.18511,15.14266,1029.009
1.698805332,0.5639695,1.919541,-0.261384,0.6967572,-0.2996689,-0.6721447,-35.50231,23.18511,15.14266,1029.009
1.701269150,0.3175357,1.860468,-0.261384,0.6943032,-0.3016008,-0.6774228,-35.50231,23.18511,15.14266,1029.009
1.703733444,0.3175357,1.506029,-0.2003114,0.6967248,-0.3001134,-0.6779067,-35.50231,23.18511,15.14266,1029.009
1.706197262,0.3175357,1.269737,-0.2003114,0.6996832,-0.3006047,-0.6750591,-35.50231,23.18511,15.14266,1029.009
1.708661079,0.2559272,1.210664,-0.0781662,0.6943228,-0.3006599,-0.6726146,-35.50231,23.18511,15.14266,1029.009
1.711125374,0.1327103,1.033445,0.043979,0.6962268,-0.2986608,-0.6764467,-35.50231,23.18511,15.14266,1029.009
1.713589191,0.009493358,0.8562251,0.1050516,0.6961443,-0.2932666,-0.6783044,-35.50231,23.18511,15.14266,1029.009
1.716053009,-0.05211511,0.5608594,0.2271968,0.6977122,-0.2996362,-0.675511,-34.77052,24.21366,15.14707,1029.009
1.718517303,-0.1137236,0.7380788,0.2271968,0.6991816,-0.3005932,-0.6769737,-34.77052,24.21366,15.14707,1029.009
1.720984459,-0.175332,0.5017864,0.2271968,0.6967188,-0.2986611,-0.6759712,-34.77052,24.21366,15.14707,1029.009
1.723444939,-0.3601574,0.3836401,0.2882694,0.6967284,-0.2986723,-0.6745321,-34.77052,24.21366,15.14707,1029.009
1.725909233,-0.2985489,0.3836401,0.349342,0.6956806,-0.2966709,-0.6812174,-34.77052,24.21366,15.14707,1029.009
1.728373051,-0.2369405,0.0292013,0.349342,0.6942363,-0.2981516,-0.6807418,-34.77052,24.21366,15.14707,1029.009
1.730836868,-0.3601574,-0.08894497,0.349342,0.6933228,-0.3001589,-0.6749993,-34.77052,24.21366,15.14707,1029.009
1.733301163,-0.4833744,-0.1480181,0.4104146,0.694341,-0.3050166,-0.6784211,-34.77052,24.21366,15.14707,1029.009
1.735764980,-0.4217659,-0.2661644,0.654705,0.6889358,-0.303575,-0.6797976,-34.77052,24.21366,15.14707,1029.013
1.738228798,-0.5449828,-0.4433837,0.8989954,0.6879932,-0.305549,-0.6783724,-34.77052,24.21366,15.14707,1029.013
1.740693092,-0.4833744,-0.6796762,0.960068,0.686441,-0.3006427,-0.6816623,-34.77052,24.21366,15.14707,1029.013
1.743156910,-0.4217659,-0.7978225,0.7768502,0.6889262,-0.3030823,-0.6802718,-34.77052,24.21366,15.14707,1029.013
1.745620727,-0.5449828,-0.7978225,0.7157776,0.6912895,-0.3029729,-0.6922852,-34.77052,24.21366,15.14707,1029.013
1.748085022,-0.7298082,-0.7387494,0.7157776,0.6898302,-0.3005823,-0.6864885,-34.77052,24.21366,15.14707,1029.013
1.750548840,-0.6681997,-0.9750419,0.960068,0.6889,-0.3044975,-0.6870043,-34.77052,24.21366,15.14707,1029.013
1.753012657,-0.6681997,-1.211334,0.960068,0.6849613,-0.3025642,-0.6874284,-34.77052,24.21366,15.14707,1029.013
1.755476952,-0.7298082,-1.034115,0.8989954,0.6878403,-0.2976651,-0.6859588,-34.77052,24.21366,15.14707,1029.013
1.757940769,-0.7914166,-1.152261,0.8989954,0.6878052,-0.296661,-0.6893056,-34.77052,24.21366,15.14707,1029.013
1.760404587,-0.8530251,-1.388554,0.8989954,0.688792,-0.2981104,-0.6907697,-34.77052,24.21366,15.14707,1029.013
1.762868881,-0.9762421,-1.270407,0.8989954,0.6888335,-0.2996034,-0.6874285,-34.77052,24.21366,15.14707,1029.013
1.765332699,-0.9146336,-1.565773,0.960068,0.6854601,-0.3011272,-0.6830986,-34.77052,24.21366,15.14707,1029.013
1.767796993,-0.9762421,-1.683919,1.021141,0.6834634,-0.3001291,-0.6873881,-35.5045,24.22548,14.76361,1029.013
1.770265579,-0.9762421,-1.565773,1.082213,0.6878108,-0.2995582,-0.694136,-35.5045,24.22548,14.76361,1029.013
1.772724628,-0.9762421,-1.742993,1.021141,0.6873415,-0.2991021,-0.6902886,-35.5045,24.22548,14.76361,1029.013
1.775188923,-1.161067,-1.802066,1.143286,0.6918077,-0.3015581,-0.6850773,-35.5045,24.22548,14.76361,1029.01
1.777652740,-1.222676,-1.920212,1.204358,0.6893043,-0.2947617,-0.6806612,-35.5045,24.22548,14.76361,1029.01
1.780116558,-1.161067,-2.097431,1.082213,0.6883032,-0.2981137,-0.6907656,-35.5045,24.22548,14.76361,1029.01
1.782580852,-1.099459,-1.861139,1.326504,0.686053,-0.310397,-0.6856068,-35.5045,24.22548,14.76361,1029.01
1.785044670,-1.222676,-2.097431,1.387576,0.6859202,-0.2996457,-0.6845253,-35.5045,24.22548,14.76361,1029.01
1.787508488,-1.284284,-2.156504,1.326504,0.6820356,-0.3006652,-0.6825842,-35.5045,24.22548,14.76361,1029.01
1.789972782,-1.099459,-2.215578,1.387576,0.6874247,-0.3020883,-0.6836061,-35.5045,24.22548,14.76361,1029.01
1.792436600,-1.161067,-2.333724,1.265431,0.6898907,-0.3035424,-0.6831639,-35.5045,24.22548,14.76361,1029.01
1.794900417,-1.161067,-2.333724,1.265431,0.687383,-0.3010768,-0.6879123,-35.5045,24.22548,14.76361,1029.01
1.797364712,-1.530718,-2.570016,1.448649,0.6879007,-0.3015885,-0.6845641,-35.5045,24.22548,14.76361,1029.01
1.799828529,-1.46911,-2.510943,1.387576,0.6868401,-0.2981274,-0.6902733,-35.5045,24.22548,14.76361,1029.01
1.802292347,-1.46911,-2.688163,1.265431,0.6903219,-0.3020275,-0.6889079,-35.5045,24.22548,14.76361,1029.01
1.804756641,-1.345893,-2.865382,1.387576,0.6864464,-0.304503,-0.6884226,-35.5045,24.22548,14.76361,1029.01
1.807220459,-1.407501,-2.865382,1.509722,0.6843802,-0.2981255,-0.692651,-35.5045,24.22548,14.76361,1029.01
1.809684277,-1.530718,-3.101675,1.326504,0.6888596,-0.2986699,-0.681661,-35.5045,24.22548,14.76361,1029.01
1.812148571,-1.46911,-3.101675,1.204358,0.687447,-0.3030775,-0.6821781,-35.5045,24.22548,14.76361,1029.01
1.814612389,-1.284284,-3.042601,1.692939,0.684406,-0.2981552,-0.6888134,-35.5045,24.22548,14.76361,1029.014
1.817077637,-1.222676,-3.160748,1.448649,0.6814532,-0.3010426,-0.6974564,-35.50366,24.2255,15.14446,1029.014
1.819540501,-1.407501,-3.219821,1.387576,0.6825017,-0.3011175,-0.6869112,-35.50366,24.2255,15.14446,1029.014
1.822004318,-1.407501,-3.160748,1.570794,0.680949,-0.2981377,-0.6940609,-35.50366,24.2255,15.14446,1029.014
1.824468136,-1.46911,-3.337967,1.509722,0.6819582,-0.3005762,-0.694097,-35.50366,24.2255,15.14446,1029.014
1.826932430,-1.345893,-3.337967,1.509722,0.6810195,-0.3001457,-0.6873673,-35.50366,24.2255,15.14446,1029.014
1.829396248,-1.345893,-3.337967,1.570794,0.6784955,-0.2976615,-0.6945142,-35.50366,24.2255,15.14446,1029.014
1.831860065,-1.46911,-3.515186,1.570794,0.6805048,-0.300601,-0.6921657,-35.50366,24.2255,15.14446,1029.014
1.834324360,-1.46911,-3.515186,1.448649,0.6809329,-0.2981191,-0.6964595,-35.50366,24.2255,15.14446,1029.014
1.836788177,-1.46911,-3.57426,1.570794,0.6784412,-0.2956721,-0.6988093,-35.50366,24.2255,15.14446,1029.014
1.839252472,-1.46911,-3.633332,1.509722,0.6804448,-0.2957144,-0.6916304,-35.50366,24.2255,15.14446,1029.014
1.841716289,-1.407501,-3.57426,1.631867,0.6789685,-0.2961949,-0.694022,-35.50366,24.2255,15.14446,1029.014
1.844182014,-1.407501,-3.692406,1.631867,0.6795814,-0.3030788,-0.6888272,-35.50366,24.2255,15.14446,1029.014
1.846644402,-1.592327,-3.692406,1.815084,0.6800068,-0.2986667,-0.6897408,-35.50366,24.2255,15.14446,1029.014
1.849108219,-1.530718,-3.869625,1.570794,0.6764604,-0.2951741,-0.7016653,-35.50366,24.2255,15.14446,1029.014
1.851572037,-1.46911,-4.046844,1.509722,0.6775786,-0.3001468,-0.6902163,-35.50366,24.2255,15.14446,1029.014
1.854036331,-1.46911,-4.105918,1.570794,0.6775811,-0.3030402,-0.6955264,-35.50366,24.2255,15.14446,1029.011
1.856500149,-1.46911,-4.16499,1.754012,0.6789522,-0.2971395,-0.6983504,-35.50366,24.2255,15.14446,1029.011
1.861428261,-1.46911,-4.16499,1.815084,0.6810386,-0.3011312,-0.686419,-35.50366,24.2255,15.14446,1029.011
1.863888264,-1.46911,-4.16499,1.754012,0.6780734,-0.3020774,-0.6931208,-35.50366,24.2255,15.14446,1029.011
1.866352081,-1.345893,-4.283137,1.815084,0.6790156,-0.3015482,-0.697441,-35.50366,24.2255,15.14446,1029.011
1.868815899,-1.46911,-4.34221,1.876157,0.6780165,-0.297676,-0.6930708,-34.83027,23.17425,15.14505,1029.011
1.871284008,-1.530718,-4.34221,1.754012,0.6751096,-0.2977256,-0.6892082,-34.83027,23.17425,15.14505,1029.011
1.873744011,-1.530718,-4.401283,1.815084,0.6790415,-0.3010963,-0.6926384,-34.83027,23.17425,15.14505,1029.011
1.876207828,-1.407501,-4.401283,1.815084,0.6785105,-0.3020146,-0.7008003,-34.83027,23.17425,15.14505,1029.011
1.878672123,-1.46911,-4.578503,1.815084,0.6775463,-0.3005913,-0.6959783,-34.83027,23.17425,15.14505,1029.011
1.881135941,-1.653935,-4.51943,1.815084,0.6736676,-0.3035447,-0.6969377,-34.83027,23.17425,15.14505,1029.011
1.883599758,-1.653935,-4.401283,1.754012,0.6785711,-0.3049748,-0.6974758,-34.83027,23.17425,15.14505,1029.011
1.886064053,-1.592327,-4.51943,1.815084,0.6789678,-0.2990845,-0.6998118,-34.83027,23.17425,15.14505,1029.011
1.888527870,-1.653935,-4.696649,1.754012,0.6775844,-0.3025623,-0.6940817,-34.83027,23.17425,15.14505,1029.011
1.890991688,-1.592327,-4.637576,1.815084,0.670693,-0.3030348,-0.7021838,-34.83027,23.17425,15.14505,1029.011
1.893455982,-1.46911,-4.932941,1.815084,0.6711626,-0.3025276,-0.7041012,-34.83027,23.17425,15.14505,1029.011
1.895919800,-1.530718,-4.932941,1.692939,0.6736514,-0.3035261,-0.6993362,-34.83027,23.17425,15.14505,1029.013
1.898383617,-1.592327,-4.814795,1.631867,0.673665,-0.3011329,-0.6925925,-34.83027,23.17425,15.14505,1029.013
1.900847912,-1.46911,-4.873868,1.631867,0.6682497,-0.301125,-0.6983031,-34.83027,23.17425,15.14505,1029.013
1.903311729,-1.46911,-4.932941,1.570794,0.6715983,-0.2962003,-0.6997159,-34.83027,23.17425,15.14505,1029.013
1.905775547,-1.345893,-4.932941,1.631867,0.6745811,-0.3015374,-0.7026802,-34.83027,23.17425,15.14505,1029.013
1.908239841,-1.407501,-4.814795,1.570794,0.6672143,-0.3001017,-0.7049994,-34.83027,23.17425,15.14505,1029.013
1.910703659,-1.284284,-4.814795,1.815084,0.6671728,-0.298127,-0.7073757,-34.83027,23.17425,15.14505,1029.013
1.913167477,-1.284284,-4.932941,1.631867,0.6667346,-0.3025242,-0.7083811,-34.83027,23.17425,15.14505,1029.013
1.915631771,-1.407501,-4.932941,1.631867,0.66232,-0.3006092,-0.7068821,-34.83027,23.17425,15.14505,1029.013
1.918095589,-1.530718,-4.873868,1.509722,0.6637639,-0.29961,-0.7083227,-34.46326,23.47435,15.52774,1029.013
1.920559883,-1.284284,-4.755722,1.570794,0.6647504,-0.3025041,-0.7126817,-34.46326,23.47435,15.52774,1029.013
1.923023701,-1.222676,-4.992014,1.509722,0.6594663,-0.3069829,-0.707409,-34.46326,23.47435,15.52774,1029.013
1.925487518,-1.284284,-4.932941,1.509722,0.6628466,-0.30354,-0.7069196,-34.46326,23.47435,15.52774,1029.013
1.927951813,-1.407501,-4.696649,1.509722,0.6642686,-0.3005884,-0.7078583,-34.46326,23.47435,15.52774,1029.013
1.930415630,-1.345893,-4.578503,1.570794,0.6584632,-0.3059966,-0.7093084,-34.46326,23.47435,15.52774,1029.013
1.932879448,-1.407501,-4.637576,1.448649,0.6589388,-0.3069417,-0.7131613,-34.46326,23.47435,15.52774,1029.013
1.935343742,-1.222676,-4.578503,1.326504,0.6623645,-0.3030692,-0.7049911,-34.46326,23.47435,15.52774,1029.015
1.937807560,-1.161067,-4.51943,1.387576,0.6559684,-0.3030642,-0.711173,-34.46326,23.47435,15.52774,1029.015
1.940271378,-1.222676,-4.401283,1.143286,0.6525837,-0.3108378,-0.7208268,-34.46326,23.47435,15.52774,1029.015
1.942735672,-1.284284,-4.283137,1.204358,0.6574277,-0.3054549,-0.7169697,-34.46326,23.47435,15.52774,1029.015
1.945199490,-1.222676,-4.16499,1.265431,0.6540161,-0.3045261,-0.7135715,-34.46326,23.47435,15.52774,1029.015
1.947663307,-1.222676,-4.224064,1.204358,0.6521459,-0.312827,-0.7170072,-34.46326,23.47435,15.52774,1029.015
1.950127602,-1.099459,-4.16499,1.021141,0.6529866,-0.3059182,-0.7241334,-34.46326,23.47435,15.52774,1029.015
1.952591419,-1.161067,-4.046844,0.8989954,0.6560279,-0.3098773,-0.7155681,-34.46326,23.47435,15.52774,1029.015
1.955060959,-1.03785,-3.869625,1.021141,0.6530883,-0.3118163,-0.7203623,-34.46326,23.47435,15.52774,1029.015
1.957519531,-1.099459,-3.928698,0.960068,0.6490601,-0.3064079,-0.7274635,-34.46326,23.47435,15.52774,1029.015
1.959983349,-1.03785,-3.810552,0.7768502,0.6486732,-0.3118277,-0.7227234,-34.46326,23.47435,15.52774,1029.015
1.962447166,-0.9146336,-3.633332,0.7768502,0.6452329,-0.3099023,-0.7217125,-34.46326,23.47435,15.52774,1029.015
1.964911461,-0.8530251,-3.692406,0.7768502,0.6496887,-0.3147553,-0.7227651,-34.46326,23.47435,15.52774,1029.015
1.967375278,-0.9762421,-3.515186,0.7157776,0.6506468,-0.3152079,-0.7266166,-35.50282,24.22552,15.52532,1029.015
1.969839096,-0.9762421,-3.39704,0.4714872,0.6520659,-0.3103262,-0.724175,-35.50282,24.22552,15.52532,1029.015
1.972303390,-0.7914166,-3.337967,0.5325598,0.6500574,-0.3054603,-0.7226636,-35.50282,24.22552,15.52532,1029.015
1.974767208,-0.7914166,-3.219821,0.4714872,0.6475972,-0.30594,-0.7260062,-35.50282,24.22552,15.52532,1029.011
1.977629662,-0.7298082,-2.924455,0.4104146,0.6481046,-0.308367,-0.7279571,-35.50282,24.22552,15.52532,1029.011
1.980093956,-0.6065912,-2.924455,0.349342,0.6472067,-0.3123193,-0.7236758,-35.50282,24.22552,15.52532,1029.011
1.982557774,-0.6065912,-2.806309,0.349342,0.6442168,-0.3089012,-0.7255307,-35.50282,24.22552,15.52532,1029.011
1.985024452,-0.6065912,-2.629089,0.349342,0.6495177,-0.3025146,-0.7245449,-35.50282,24.22552,15.52532,1029.011
1.987485886,-0.6065912,-2.510943,0.4104146,0.6510953,-0.3084138,-0.7193474,-35.50282,24.22552,15.52532,1029.011
1.989949703,-0.7298082,-2.688163,0.2882694,0.6485882,-0.3035401,-0.7192709,-35.50282,24.22552,15.52532,1029.011
1.992413998,-0.5449828,-2.629089,0.1050516,0.6466391,-0.3054873,-0.7221547,-35.50282,24.22552,15.52532,1029.011
1.994877815,-0.2985489,-2.392797,0.1661242,0.650492,-0.3025042,-0.725033,-35.50282,24.22552,15.52532,1029.011
1.997341633,-0.4217659,-2.097431,0.043979,0.6529455,-0.3024987,-0.7236148,-35.50282,24.22552,15.52532,1029.011
1.999805927,-0.2369405,-2.156504,0.043979,0.6461659,-0.3074356,-0.7236119,-35.50282,24.22552,15.52532,1029.011
2.002269745,-0.2369405,-2.038358,-0.0170936,0.6519775,-0.3029981,-0.7231323,-35.50282,24.22552,15.52532,1029.011
2.004733562,-0.2369405,-1.861139,-0.2003114,0.6514312,-0.3010082,-0.7279029,-35.50282,24.22552,15.52532,1029.011
2.007203102,-0.175332,-1.861139,-0.0170936,0.6490258,-0.3020326,-0.7240555,-35.50282,24.22552,15.52532,1029.011
2.009661675,-0.175332,-1.920212,0.043979,0.6520032,-0.3035094,-0.7202595,-35.50282,24.22552,15.52532,1029.011
2.012125492,-0.175332,-1.624846,-0.261384,0.6505196,-0.3078353,-0.7313302,-35.50282,24.22552,15.52532,1029.011
2.014589787,-0.05211511,-1.388554,-0.3224566,0.6446204,-0.3015735,-0.7240124,-35.50282,24.22552,15.52532,1029.014
2.017053604,-0.05211511,-1.388554,-0.1392388,0.6450896,-0.3025112,-0.7288247,-35.50282,24.22552,15.52532,1029.014
2.019517422,0.009493358,-1.152261,-0.2003114,0.6475027,-0.2971597,-0.723028,-35.13578,23.85241,15.52599,1029.014
2.021986961,0.1327103,-1.093188,-0.3835292,0.6450585,-0.2981396,-0.7249371,-35.13578,23.85241,15.52599,1029.014
2.026909351,0.1943187,-0.9159687,-0.3835292,0.6484956,-0.3000612,-0.7264276,-35.13578,23.85241,15.52599,1029.014
2.026909351,0.1943187,-0.9159687,-0.3835292,0.6484956,-0.3000612,-0.7264276,-35.13578,23.85241,15.52599,1029.014
2.031837940,0.3175357,-0.4433837,-0.6278196,0.6470331,-0.2976669,-0.7211106,-35.13578,23.85241,15.52599,1029.014
2.034301281,0.3791441,-0.5024568,-0.6278196,0.6498796,-0.2941754,-0.7273329,-35.13578,23.85241,15.52599,1029.014
2.036765575,0.4407526,-0.3843106,-0.5056744,0.6517934,-0.2917058,-0.7287609,-35.13578,23.85241,15.52599,1029.014
2.039230346,0.2559272,-0.2070912,-0.566747,0.6464843,-0.2927836,-0.7205711,-35.13578,23.85241,15.52599,1029.014
2.041694164,0.5023611,-0.02987185,-0.6888922,0.6499874,-0.3015258,-0.7254974,-35.13578,23.85241,15.52599,1029.014
2.044157982,0.4407526,0.0292013,-0.7499648,0.6479851,-0.2966673,-0.7230266,-35.13578,23.85241,15.52599,1029.014
2.046622276,0.5023611,-0.02987185,-0.6888922,0.6503981,-0.2917975,-0.7181948,-35.13578,23.85241,15.52599,1029.014
2.049086094,0.5639695,0.1473476,-0.7499648,0.6534253,-0.3000762,-0.7202331,-35.13578,23.85241,15.52599,1029.014
2.051549911,0.6871864,0.2654938,-0.7499648,0.652432,-0.2986194,-0.7197284,-35.13578,23.85241,15.52599,1029.014
2.054014206,0.5639695,0.2654938,-0.8110374,0.6518288,-0.2917466,-0.7234842,-35.13578,23.85241,15.52599,1029.014
2.056479931,0.6255779,0.324567,-0.7499648,0.6582243,-0.2941597,-0.7221271,-35.13578,23.85241,15.52599,1029.016
2.058941841,0.7487949,0.3836401,-0.8110374,0.6562636,-0.2907943,-0.716315,-35.13578,23.85241,15.52599,1029.016
2.061406135,0.8104033,0.5608594,-0.7499648,0.6572177,-0.2941329,-0.726436,-35.13578,23.85241,15.52599,1029.016
2.063866138,0.7487949,0.4427132,-0.9942551,0.6563237,-0.2951993,-0.7158853,-35.13578,23.85241,15.52599,1029.016
2.066329956,0.8104033,0.4427132,-0.9331825,0.6587359,-0.2932191,-0.7168434,-35.13578,23.85241,15.52599,1029.016
2.068793773,0.8720118,0.7380788,-0.8110374,0.6591789,-0.2955719,-0.7283882,-34.82969,23.48028,15.58991,1029.016
2.071258068,0.8104033,0.7380788,-0.7499648,0.6592528,-0.2966204,-0.719285,-34.82969,23.48028,15.58991,1029.016
2.073721885,0.6871864,0.8562251,-0.7499648,0.6568631,-0.2991082,-0.715934,-34.82969,23.48028,15.58991,1029.016
2.076185703,0.8104033,0.8562251,-0.8721099,0.6592815,-0.2980987,-0.7178625,-34.82969,23.48028,15.58991,1029.016
2.078649997,0.8104033,0.7380788,-0.8110374,0.6631951,-0.2971125,-0.7154863,-34.82969,23.48028,15.58991,1029.016
2.081113815,0.8104033,0.9152982,-0.6888922,0.6631823,-0.2970977,-0.7174051,-34.82969,23.48028,15.58991,1029.016
2.083577633,0.9952287,0.9152982,-0.8721099,0.6622272,-0.2976119,-0.7150038,-34.82969,23.48028,15.58991,1029.016
2.086041927,1.056837,0.9743713,-0.7499648,0.65877,-0.2985576,-0.7221813,-34.82969,23.48028,15.58991,1029.016
2.088505745,0.9336203,1.092518,-0.6278196,0.6597667,-0.2990549,-0.7202763,-34.82969,23.48028,15.58991,1029.016
2.090969562,0.9336203,1.151591,-0.8110374,0.655911,-0.3005894,-0.7149829,-34.82969,23.48028,15.58991,1029.016
2.093433857,0.9952287,1.092518,-0.8110374,0.6609141,-0.3035793,-0.703545,-34.82969,23.48028,15.58991,1029.016
2.095897674,0.9336203,1.151591,-0.9331825,0.6633031,-0.3034996,-0.7117209,-34.82969,23.48028,15.58991,1029.013
2.098361492,1.180054,1.092518,-1.055328,0.6637601,-0.3020144,-0.7136272,-34.82969,23.48028,15.58991,1029.013
2.100825786,0.9336203,1.151591,-1.055328,0.6583956,-0.3054371,-0.7184172,-34.82969,23.48028,15.58991,1029.013
2.103289604,1.056837,1.269737,-0.9942551,0.6588748,-0.304941,-0.7188955,-34.82969,23.48028,15.58991,1029.013
2.105754852,1.056837,1.269737,-0.9942551,0.6569483,-0.3064326,-0.7174564,-34.82969,23.48028,15.58991,1029.013
2.108217716,1.056837,1.32881,-1.055328,0.6525657,-0.3055179,-0.7130904,-34.82969,23.48028,15.58991,1029.013
2.110681534,1.118446,1.506029,-1.055328,0.6558849,-0.3015229,-0.7207505,-34.82969,23.48028,15.58991,1029.013
2.113145351,1.056837,1.683249,-1.1164,0.6588499,-0.30154,-0.7159784,-34.82969,23.48028,15.58991,1029.013
2.115609646,1.056837,1.446956,-1.299618,0.6599319,-0.30888,-0.714631,-34.82969,23.48028,15.58991,1029.013
2.118073463,1.056837,1.506029,-1.238546,0.6560087,-0.3093734,-0.7174814,-34.82969,23.48028,15.58991,1029.013
2.120537281,1.056837,1.742322,-1.177473,0.655009,-0.3074276,-0.7169711,-35.13393,23.17924,15.96915,1029.013
2.123001575,1.180054,1.860468,-1.1164,0.6510795,-0.307432,-0.7198159,-35.13393,23.17924,15.96915,1029.013
2.125465393,0.9952287,1.860468,-1.177473,0.6535648,-0.3093901,-0.7174605,-35.13393,23.17924,15.96915,1029.013
2.127929687,1.241663,1.860468,-1.299618,0.6536098,-0.3099236,-0.7117096,-35.13393,23.17924,15.96915,1029.013
2.130393505,1.241663,1.919541,-1.055328,0.6535239,-0.3054889,-0.715977,-35.13393,23.17924,15.96915,1029.013
2.132857322,1.180054,1.919541,-1.1164,0.6579292,-0.305948,-0.7160201,-35.13393,23.17924,15.96915,1029.013
2.135321617,1.303271,2.037688,-1.238546,0.6521342,-0.3084776,-0.7102414,-35.13393,23.17924,15.96915,1029.014
2.137785435,1.118446,2.27398,-1.360691,0.6525912,-0.3065107,-0.7111827,-35.13393,23.17924,15.96915,1029.014
2.140249252,1.303271,2.392126,-1.299618,0.6574662,-0.305981,-0.7121783,-35.13393,23.17924,15.96915,1029.014
2.142713547,1.364879,2.155834,-1.360691,0.6579451,-0.3069298,-0.7155515,-35.13393,23.17924,15.96915,1029.014
2.145177364,1.241663,2.333053,-1.299618,0.6574058,-0.3025392,-0.7145379,-35.13393,23.17924,15.96915,1029.014
2.147641182,1.180054,2.4512,-1.360691,0.655403,-0.3000888,-0.7168919,-35.13393,23.17924,15.96915,1029.014
2.150105476,1.180054,2.333053,-1.238546,0.6594433,-0.3084017,-0.7136618,-35.13393,23.17924,15.96915,1029.014
2.152569294,1.180054,2.333053,-1.666054,0.6613895,-0.3054876,-0.7093279,-35.13393,23.17924,15.96915,1029.014
2.155033111,1.180054,2.746565,-1.543908,0.6583994,-0.3030328,-0.7131127,-35.13393,23.17924,15.96915,1029.014
2.157497406,1.180054,2.628419,-1.543908,0.6633061,-0.3049482,-0.7141361,-35.13393,23.17924,15.96915,1029.014
2.159961223,1.180054,2.628419,-1.482836,0.6628211,-0.3025471,-0.7088274,-35.13393,23.17924,15.96915,1029.014
2.162425041,1.118446,2.746565,-1.421763,0.6653124,-0.306439,-0.7093724,-35.13393,23.17924,15.96915,1029.014
2.164889335,1.303271,2.746565,-1.482836,0.6628556,-0.3064408,-0.7112703,-35.13393,23.17924,15.96915,1029.014
2.167353153,1.364879,2.746565,-1.482836,0.6632909,-0.3010767,-0.7088149,-35.13393,23.17924,15.96915,1029.014
2.169820308,1.056837,2.628419,-1.543908,0.6627513,-0.298131,-0.7106962,-34.76874,23.47929,15.52665,1029.014
2.172281265,1.180054,2.687492,-1.543908,0.6632746,-0.3015398,-0.7121783,-34.76874,23.47929,15.52665,1029.014
2.174745083,1.241663,2.805638,-1.604981,0.6641986,-0.2966539,-0.710692,-34.76874,23.47929,15.52665,1029.009
2.177208900,1.241663,2.982858,-1.543908,0.6681787,-0.3010434,-0.7088566,-34.76874,23.47929,15.52665,1029.009
2.179673195,1.241663,3.041931,-1.604981,0.6652973,-0.3025676,-0.7040511,-34.76874,23.47929,15.52665,1029.009
2.182137012,1.241663,2.864712,-1.543908,0.6657668,-0.3020604,-0.7059686,-34.76874,23.47929,15.52665,1029.009
2.184600830,1.118446,3.041931,-1.360691,0.6642183,-0.2957129,-0.7058838,-34.76874,23.47929,15.52665,1029.009
2.187065124,1.241663,2.982858,-1.299618,0.6656943,-0.2957141,-0.7044572,-34.76874,23.47929,15.52665,1029.009
2.189528942,1.056837,3.041931,-1.482836,0.6666849,-0.2952407,-0.7015818,-34.76874,23.47929,15.52665,1029.009
2.191992760,1.180054,2.982858,-1.421763,0.6696841,-0.2996331,-0.7002177,-34.76874,23.47929,15.52665,1029.009
2.194457054,1.303271,3.041931,-1.360691,0.6682779,-0.3040481,-0.6997755,-34.76874,23.47929,15.52665,1029.009
2.199385166,1.180054,3.041931,-1.482836,0.6735718,-0.2995805,-0.703609,-34.76874,23.47929,15.52665,1029.009
2.201848984,1.180054,2.923784,-1.238546,0.6755908,-0.3020495,-0.6988565,-34.76874,23.47929,15.52665,1029.009
2.204312801,1.118446,2.805638,-1.299618,0.6730297,-0.2937414,-0.7001803,-34.76874,23.47929,15.52665,1029.009
2.206777096,1.118446,2.982858,-1.360691,0.6750616,-0.2962252,-0.6935089,-34.76874,23.47929,15.52665,1029.009
2.209240913,1.180054,2.864712,-1.421763,0.6740068,-0.2956612,-0.7040485,-34.76874,23.47929,15.52665,1029.009
2.211704731,1.241663,2.746565,-1.360691,0.6755207,-0.2985966,-0.7026553,-34.76874,23.47929,15.52665,1029.009
2.214169025,1.241663,2.746565,-1.299618,0.6744612,-0.2912826,-0.7006447,-34.76874,23.47929,15.52665,1029.01
2.216632843,1.241663,2.687492,-1.360691,0.6745754,-0.2986403,-0.6978499,-34.76874,23.47929,15.52665,1029.01
2.219096660,1.118446,2.628419,-1.299618,0.6774891,-0.2971532,-0.6978582,-35.86928,23.49703,15.14189,1029.01
2.221560955,1.118446,2.628419,-1.238546,0.6735154,-0.2932528,-0.6996992,-35.86928,23.49703,15.14189,1029.01
2.224024772,1.241663,2.4512,-1.299618,0.6726083,-0.2952675,-0.6929972,-35.86928,23.49703,15.14189,1029.01
2.226488590,1.180054,2.628419,-0.9331825,0.6765052,-0.2966709,-0.6978443,-35.86928,23.49703,15.14189,1029.01
2.228952884,1.303271,2.569346,-1.055328,0.6775145,-0.2986278,-0.6969155,-35.86928,23.49703,15.14189,1029.01
2.231416702,1.241663,2.628419,-1.1164,0.6706432,-0.2967145,-0.6973146,-35.86928,23.49703,15.14189,1029.01
2.233880520,1.118446,2.4512,-0.9942551,0.6701381,-0.2971809,-0.7006738,-35.86928,23.49703,15.14189,1029.01
2.236344814,1.241663,2.333053,-1.177473,0.6720906,-0.2947558,-0.6963454,-35.86928,23.49703,15.14189,1029.01
2.238808632,1.118446,2.510273,-0.9942551,0.6749902,-0.2975884,-0.7069572,-35.86928,23.49703,15.14189,1029.01
2.241272449,1.180054,2.392126,-1.055328,0.6755368,-0.2986151,-0.7002567,-35.86928,23.49703,15.14189,1029.01
2.243736744,1.180054,2.4512,-1.421763,0.6691513,-0.29525,-0.6982448,-35.86928,23.49703,15.14189,1029.01
2.246200561,1.180054,2.628419,-1.299618,0.6730615,-0.2952233,-0.6982781,-35.86928,23.49703,15.14189,1029.01
2.248664379,1.241663,2.4512,-1.177473,0.6725689,-0.297631,-0.7035785,-35.86928,23.49703,15.14189,1029.01
2.251128673,1.056837,2.155834,-1.177473,0.6760296,-0.2957258,-0.6939914,-35.86928,23.49703,15.14189,1029.01
2.253592491,1.118446,2.4512,-1.055328,0.6759942,-0.2952034,-0.6983032,-35.86928,23.49703,15.14189,1029.01
2.256056309,1.180054,2.392126,-0.9942551,0.675016,-0.2976181,-0.7031196,-35.86928,23.49703,15.14189,1029.007
2.258520603,1.241663,2.214907,-0.9331825,0.6799775,-0.2995966,-0.6959881,-35.86928,23.49703,15.14189,1029.007
2.260984421,1.180054,2.155834,-0.8721099,0.6760138,-0.2942624,-0.693495,-35.86928,23.49703,15.14189,1029.007
2.263444424,1.118446,2.214907,-0.9942551,0.6774857,-0.2976311,-0.6993029,-35.86928,23.49703,15.14189,1029.007
2.265908241,1.118446,2.392126,-1.055328,0.6799163,-0.2990445,-0.7041374,-35.86928,23.49703,15.14189,1029.007
2.268373012,1.180054,2.096761,-0.9331825,0.6784316,-0.2951793,-0.6992834,-35.86928,23.49703,15.14189,1029.007
2.270836353,1.241663,2.096761,-0.9331825,0.6780291,-0.2986541,-0.693082,-34.77136,24.21364,14.76621,1029.007
2.273300171,1.241663,2.155834,-0.9331825,0.6774256,-0.2932262,-0.6997325,-34.77136,24.21364,14.76621,1029.007
2.275764465,1.180054,2.155834,-0.8721099,0.6804121,-0.2971221,-0.6993223,-34.77136,24.21364,14.76621,1029.007
2.278228283,1.118446,2.155834,-0.8721099,0.6843571,-0.300026,-0.6998688,-34.77136,24.21364,14.76621,1029.007
2.280692577,1.056837,2.037688,-1.055328,0.6765279,-0.2962152,-0.6935214,-34.77136,24.21364,14.76621,1029.007
2.283156395,0.9952287,1.978615,-0.9331825,0.6765121,-0.2947518,-0.693025,-34.77136,24.21364,14.76621,1029.007
2.285620212,0.9952287,1.860468,-0.8110374,0.6780577,-0.3006139,-0.6926245,-34.77136,24.21364,14.76621,1029.007
2.288084507,0.9952287,1.860468,-0.8721099,0.6770767,-0.3010985,-0.6940609,-34.77136,24.21364,14.76621,1029.007
2.290548324,1.180054,1.978615,-0.8721099,0.6815038,-0.3044732,-0.6965359,-34.77136,24.21364,14.76621,1029.007
2.293012142,0.9336203,1.860468,-0.9942551,0.6823609,-0.2966198,-0.6993335,-34.77136,24.21364,14.76621,1029.007
2.295476436,0.9336203,1.801395,-0.7499648,0.6808693,-0.294192,-0.6983338,-34.77136,24.21364,14.76621,1029.009
2.297940254,0.9336203,1.801395,-0.8110374,0.6790596,-0.3059347,-0.6994098,-34.77136,24.21364,14.76621,1029.009
2.300404072,0.9952287,1.742322,-0.8721099,0.6810348,-0.303054,-0.6907585,-34.77136,24.21364,14.76621,1029.009
2.302868366,0.9952287,1.624176,-1.055328,0.6805623,-0.3025942,-0.6873909,-34.77136,24.21364,14.76621,1029.009
2.305332184,0.9336203,1.624176,-0.8721099,0.6800249,-0.3035051,-0.6965122,-34.77136,24.21364,14.76621,1029.009
2.307796001,0.8104033,1.565103,-0.8110374,0.6785524,-0.3020629,-0.6945642,-34.77136,24.21364,14.76621,1029.009
2.310260296,0.9336203,1.506029,-0.9942551,0.6761753,-0.3060103,-0.6921892,-34.77136,24.21364,14.76621,1029.009
2.312724113,0.9952287,1.387883,-0.9942551,0.6786125,-0.3069495,-0.6950995,-34.77136,24.21364,14.76621,1029.009
2.315187931,0.8720118,1.387883,-0.7499648,0.6756771,-0.3050393,-0.6916943,-34.77136,24.21364,14.76621,1029.009
2.317652225,0.7487949,1.446956,-0.566747,0.6795775,-0.3054832,-0.6941317,-34.77136,24.21364,14.76621,1029.009
2.320116043,0.8104033,1.446956,-0.566747,0.681025,-0.3035244,-0.6931626,-35.13662,23.85238,15.14513,1029.009
2.322579861,0.8720118,1.32881,-0.8110374,0.6775905,-0.3040145,-0.6960172,-35.13662,23.85238,15.14513,1029.009
2.325044155,0.6871864,1.32881,-0.8721099,0.6790506,-0.3030339,-0.6950592,-35.13662,23.85238,15.14513,1029.009
2.327507973,0.8720118,1.387883,-0.8110374,0.6805742,-0.306462,-0.6931918,-35.13662,23.85238,15.14513,1029.009
2.329971790,0.9336203,1.210664,-0.7499648,0.6781462,-0.3074604,-0.6927023,-35.13662,23.85238,15.14513,1029.009
2.332436085,0.5639695,1.32881,-0.7499648,0.678594,-0.3035559,-0.6912229,-35.13662,23.85238,15.14513,1029.009
2.334899902,0.5023611,1.32881,-0.6888922,0.6731853,-0.3030739,-0.6950092,-35.13662,23.85238,15.14513,1029.01
2.337363720,0.8720118,1.269737,-0.8110374,0.6786287,-0.3064864,-0.691736,-35.13662,23.85238,15.14513,1029.01
2.339828014,0.6871864,1.151591,-0.6278196,0.6752517,-0.3094513,-0.6907807,-35.13662,23.85238,15.14513,1029.01
2.342291832,0.6255779,1.151591,-0.7499648,0.6727982,-0.3089752,-0.6912339,-35.13662,23.85238,15.14513,1029.01
2.344755649,0.5639695,1.151591,-0.6278196,0.6790407,-0.303986,-0.6984282,-35.13662,23.85238,15.14513,1029.01
2.347219944,0.6255779,1.151591,-0.566747,0.6775838,-0.3049703,-0.6989065,-35.13662,23.85238,15.14513,1029.01
2.349683761,0.6255779,1.269737,-0.6278196,0.6728208,-0.3090012,-0.687876,-35.13662,23.85238,15.14513,1029.01
2.352147579,0.5023611,1.210664,-0.566747,0.676195,-0.3045878,-0.6864161,-35.13662,23.85238,15.14513,1029.01
2.354611873,0.5023611,1.092518,-0.6278196,0.6732373,-0.30217,-0.6854039,-35.13662,23.85238,15.14513,1029.01
2.357075691,0.4407526,1.092518,-0.6278196,0.6761472,-0.3026056,-0.6897519,-35.13662,23.85238,15.14513,1029.01
2.359539986,0.4407526,1.033445,-0.566747,0.6761533,-0.3035763,-0.6907223,-35.13662,23.85238,15.14513,1029.01
2.362003803,0.5639695,0.9152982,-0.5056744,0.6756387,-0.3035499,-0.6945559,-35.13662,23.85238,15.14513,1029.01
2.364467621,0.4407526,0.9152982,-0.6278196,0.6770674,-0.2996425,-0.692605,-35.13662,23.85238,15.14513,1029.01
2.366931915,0.5023611,0.9743713,-0.6278196,0.6747059,-0.305535,-0.6916915,-35.13662,23.85238,15.14513,1029.01
2.371859550,0.4407526,1.033445,-0.5056744,0.6780901,-0.2996878,-0.6858975,-35.13757,24.58678,15.14641,1029.01
2.374323845,0.3791441,1.033445,-0.566747,0.6780515,-0.2991617,-0.690689,-35.13757,24.58678,15.14641,1029.008
2.376787662,0.3175357,0.9743713,-0.5056744,0.6761436,-0.3035651,-0.6921614,-35.13757,24.58678,15.14641,1029.008
2.379251480,0.2559272,0.8562251,-0.5056744,0.6751574,-0.2997078,-0.6858725,-35.13757,24.58678,15.14641,1029.008
2.381715774,0.3791441,0.7380788,-0.5056744,0.6780298,-0.296246,-0.6882572,-35.13757,24.58678,15.14641,1029.008
2.384179592,0.2559272,0.6199326,-0.3224566,0.6766111,-0.2987197,-0.6858739,-35.13757,24.58678,15.14641,1029.008
2.386643410,0.3175357,0.6199326,-0.2003114,0.6794834,-0.295258,-0.6882586,-35.13757,24.58678,15.14641,1029.008
2.389107704,0.1327103,0.6790057,-0.261384,0.6775287,-0.2938265,-0.685347,-35.13757,24.58678,15.14641,1029.008
2.391571522,0.1943187,0.6790057,-0.2003114,0.682883,-0.2928007,-0.6868209,-35.13757,24.58678,15.14641,1029.008
2.394035339,0.3791441,0.5608594,-0.0781662,0.6843391,-0.294706,-0.6921324,-35.13757,24.58678,15.14641,1029.008
2.396499634,0.3175357,0.5017864,-0.2003114,0.6857677,-0.2907985,-0.6901817,-35.13757,24.58678,15.14641,1029.008
2.398963451,0.1327103,0.4427132,-0.1392388,0.6852825,-0.2893608,-0.6868029,-35.13757,24.58678,15.14641,1029.008
2.401427269,0.07110181,0.324567,-0.1392388,0.6867615,-0.2903289,-0.6868265,-35.13757,24.58678,15.14641,1029.008
2.403891563,0.07110181,0.2654938,-0.0170936,0.6853647,-0.2957182,-0.6868751,-35.13757,24.58678,15.14641,1029.008
2.406355381,0.1327103,0.1473476,0.1050516,0.6863779,-0.2952707,-0.6806418,-35.13757,24.58678,15.14641,1029.008
2.408819198,0.1327103,0.2064207,-0.0170936,0.6853814,-0.2938103,-0.6806167,-35.13757,24.58678,15.14641,1029.008
2.411283493,0.009493358,0.08827442,0.1661242,0.6878055,-0.2952162,-0.6864107,-35.13757,24.58678,15.14641,1029.008
2.413747311,-0.05211511,-0.08894497,0.2882694,0.6887508,-0.2951724,-0.6912161,-35.13757,24.58678,15.14641,1029.008
2.416211128,0.1327103,-0.1480181,0.2882694,0.6935882,-0.2907453,-0.6902484,-35.13757,24.58678,15.14641,1029.011
2.418675423,0.07110181,-0.2661644,0.2882694,0.6907221,-0.2951777,-0.6888343,-35.13757,24.58678,15.14641,1029.011
2.421139240,-0.175332,-0.7978225,0.4104146,0.6906813,-0.2907949,-0.6863858,-35.13709,24.21958,15.14577,1029.011
2.423603058,-0.2369405,-0.56153,0.349342,0.6911309,-0.2926736,-0.6960063,-35.13709,24.21958,15.14577,1029.011
2.426067829,-0.2985489,-0.6206031,0.4714872,0.6936105,-0.2917345,-0.6888204,-35.13709,24.21958,15.14577,1029.011
2.428532123,-0.1137236,-0.7387494,0.5325598,0.6927376,-0.2986062,-0.6864913,-35.13709,24.21958,15.14577,1029.011
2.430995464,-0.1137236,-0.6796762,0.4714872,0.6932362,-0.2981324,-0.6840914,-35.13709,24.21958,15.14577,1029.011
2.433459759,-0.175332,-0.7978225,0.5325598,0.6942008,-0.2981108,-0.6860186,-35.13709,24.21958,15.14577,1029.011
2.435924053,-0.175332,-1.034115,0.4104146,0.6922656,-0.29622,-0.6792638,-35.13709,24.21958,15.14577,1029.011
2.438387871,-0.05211511,-1.211334,0.654705,0.6927062,-0.2951978,-0.6845337,-35.13709,24.21958,15.14577,1029.011
2.440851688,-0.2985489,-1.329481,0.7157776,0.6927289,-0.2947421,-0.6802107,-35.13709,24.21958,15.14577,1029.011
2.443315983,-0.3601574,-1.329481,0.654705,0.6966926,-0.2995947,-0.6817389,-35.13709,24.21958,15.14577,1029.011
2.445779800,-0.4217659,-1.624846,0.7768502,0.6956295,-0.2942034,-0.6840678,-35.13709,24.21958,15.14577,1029.011
2.448243618,-0.3601574,-1.683919,1.021141,0.6907919,-0.2995938,-0.6869655,-35.13709,24.21958,15.14577,1029.011
2.450707912,-0.3601574,-1.742993,0.7768502,0.6941245,-0.2941689,-0.6898118,-35.13709,24.21958,15.14577,1029.011
2.453171730,-0.5449828,-1.979285,0.7157776,0.6937727,-0.3005927,-0.6817249,-35.13709,24.21958,15.14577,1029.011
2.455635548,-0.5449828,-2.215578,0.7768502,0.6907354,-0.2937477,-0.6840206,-35.13709,24.21958,15.14577,1029.011
2.458099842,-0.4833744,-2.274651,0.8989954,0.6937218,-0.2981253,-0.6845753,-35.13709,24.21958,15.14577,1029.011
2.460563660,-0.5449828,-2.333724,1.082213,0.6937125,-0.2966693,-0.6831195,-35.13709,24.21958,15.14577,1029.011
2.463023662,-0.6681997,-2.333724,1.082213,0.6917382,-0.2956972,-0.6840512,-35.13709,24.21958,15.14577,1029.011
2.465487480,-0.6681997,-2.510943,1.326504,0.6873774,-0.2976981,-0.682117,-35.13709,24.21958,15.14577,1029.011
2.467951774,-0.6065912,-2.629089,1.082213,0.690313,-0.298645,-0.6835923,-35.13709,24.21958,15.14577,1029.011
2.470419407,-0.6065912,-2.747236,1.143286,0.6888335,-0.2996034,-0.6874285,-35.13709,24.21958,15.14577,1029.011
2.472879410,-0.7298082,-2.688163,1.326504,0.6869397,-0.2996872,-0.6782974,-35.13698,23.48516,14.76364,1029.011
2.475343704,-0.8530251,-2.983528,1.387576,0.6878946,-0.3001362,-0.6826287,-35.13698,23.48516,14.76364,1029.011
2.477807522,-1.03785,-3.101675,1.326504,0.6884086,-0.3025706,-0.68362,-35.13698,23.48516,14.76364,1029.011
2.480271339,-0.9762421,-3.160748,1.204358,0.6858912,-0.3000939,-0.6898075,-35.13698,23.48516,14.76364,1029.011
2.482735634,-0.9762421,-3.160748,1.387576,0.6834758,-0.3020704,-0.6893292,-35.13698,23.48516,14.76364,1029.011
2.485199451,-1.099459,-3.278894,1.448649,0.6858971,-0.3020278,-0.692708,-35.13698,23.48516,14.76364,1029.011
2.487663269,-0.9146336,-3.39704,1.387576,0.6849897,-0.3050057,-0.6879359,-35.13698,23.48516,14.76364,1029.011
2.490127563,-1.03785,-3.57426,1.326504,0.6825714,-0.3060153,-0.6860073,-35.13698,23.48516,14.76364,1029.011
2.492591381,-0.9762421,-3.39704,1.570794,0.681514,-0.3025579,-0.6912369,-35.13698,23.48516,14.76364,1029.011
2.495055199,-1.099459,-3.515186,1.631867,0.6859033,-0.3029984,-0.6936784,-35.13698,23.48516,14.76364,1029.014
2.497519493,-1.099459,-3.692406,1.509722,0.6825514,-0.3084011,-0.6937103,-35.13698,23.48516,14.76364,1029.014
2.499983311,-1.161067,-3.751479,1.448649,0.6815871,-0.3069777,-0.6888884,-35.13698,23.48516,14.76364,1029.014
2.502447605,-1.161067,-3.751479,1.570794,0.6811014,-0.3074664,-0.6893694,-35.13698,23.48516,14.76364,1029.014
2.504911423,-1.46911,-3.928698,1.509722,0.6786951,-0.3118621,-0.6922768,-35.13698,23.48516,14.76364,1029.014
2.507375240,-1.222676,-3.869625,1.448649,0.6756191,-0.3044909,-0.699364,-35.13698,23.48516,14.76364,1029.014
2.509843826,-1.284284,-3.928698,1.448649,0.6776798,-0.3079713,-0.6903052,-35.13698,23.48516,14.76364,1029.014
2.512303352,-1.284284,-3.987771,1.448649,0.6781743,-0.3108651,-0.6951398,-35.13698,23.48516,14.76364,1029.014
2.514767170,-1.345893,-4.105918,1.448649,0.6767235,-0.31282,-0.6965886,-35.13698,23.48516,14.76364,1029.014
2.517231464,-1.222676,-4.401283,1.448649,0.6776226,-0.3050148,-0.69315,-35.13698,23.48516,14.76364,1029.014
2.519695282,-1.222676,-4.34221,1.387576,0.6781939,-0.3099241,-0.6903316,-35.13698,23.48516,14.76364,1029.014
2.522159099,-1.284284,-4.046844,1.326504,0.6757809,-0.3152756,-0.6961283,-35.50403,23.85828,14.76297,1029.014
2.524623394,-1.407501,-4.046844,1.326504,0.6732388,-0.3084346,-0.6974688,-35.50403,23.85828,14.76297,1029.014
2.527087211,-1.345893,-4.224064,1.387576,0.673245,-0.3094053,-0.6984393,-35.50403,23.85828,14.76297,1029.014
2.529551029,-1.284284,-4.105918,1.509722,0.6703732,-0.3109406,-0.6921947,-35.50403,23.85828,14.76297,1029.014
2.532015324,-1.284284,-4.283137,1.509722,0.6693386,-0.3070276,-0.6931013,-35.50403,23.85828,14.76297,1029.014
2.534479141,-1.407501,-4.283137,1.570794,0.6708236,-0.3099295,-0.6960255,-35.50403,23.85828,14.76297,1029.015
2.536942959,-1.530718,-4.16499,1.265431,0.669817,-0.3099028,-0.7003344,-35.50403,23.85828,14.76297,1029.015
2.541871071,-1.345893,-4.34221,1.387576,0.667852,-0.3103866,-0.7027218,-35.50403,23.85828,14.76297,1029.015
2.544334888,-1.345893,-4.224064,1.326504,0.6713502,-0.3128604,-0.696063,-35.50403,23.85828,14.76297,1029.015
2.546799183,-1.345893,-4.283137,1.326504,0.6737183,-0.3069754,-0.6960172,-35.50403,23.85828,14.76297,1029.015
2.549263000,-1.222676,-4.224064,1.143286,0.670252,-0.3055019,-0.6998089,-35.50403,23.85828,14.76297,1029.015
2.551726818,-1.345893,-4.34221,1.082213,0.6722228,-0.3074335,-0.701287,-35.50403,23.85828,14.76297,1029.015
2.554191112,-1.345893,-4.283137,1.204358,0.667316,-0.3059997,-0.7012286,-35.50403,23.85828,14.76297,1029.015
2.556654930,-1.284284,-4.105918,1.143286,0.6712812,-0.3055546,-0.692142,-35.50403,23.85828,14.76297,1029.015
2.559118748,-1.345893,-4.283137,1.082213,0.6732778,-0.3075159,-0.6897824,-35.50403,23.85828,14.76297,1029.015
2.561583042,-1.407501,-4.460356,1.143286,0.6712581,-0.307455,-0.6993598,-35.50403,23.85828,14.76297,1029.015
2.564046860,-1.530718,-4.401283,1.204358,0.6678434,-0.3065225,-0.6964412,-35.50403,23.85828,14.76297,1029.015
2.566510677,-1.407501,-4.51943,1.143286,0.6727569,-0.3070006,-0.6936103,-35.50403,23.85828,14.76297,1029.015
2.568974972,-1.592327,-4.578503,1.082213,0.6746548,-0.3030676,-0.694542,-35.50403,23.85828,14.76297,1029.015
2.571443558,-1.46911,-4.51943,1.082213,0.6722301,-0.3040697,-0.6935727,-35.1348,22.44479,15.14268,1029.015
2.573903084,-1.46911,-4.578503,1.021141,0.6770352,-0.2996054,-0.6974021,-35.1348,22.44479,15.14268,1029.015
2.576366901,-1.345893,-4.637576,1.143286,0.6746807,-0.3030972,-0.6907043,-35.1348,22.44479,15.14268,1029.011
2.578830719,-1.407501,-4.873868,1.143286,0.6720936,-0.2957228,-0.6977956,-35.1348,22.44479,15.14268,1029.011
2.581295013,-1.345893,-4.873868,1.143286,0.6760451,-0.2981524,-0.6964177,-35.1348,22.44479,15.14268,1029.011
2.583763599,-1.46911,-4.814795,1.265431,0.6754897,-0.2937433,-0.6978027,-35.1348,22.44479,15.14268,1029.011
2.586223602,-1.345893,-4.814795,1.143286,0.6750587,-0.2947766,-0.6910937,-35.1348,22.44479,15.14268,1029.011
2.588686943,-1.345893,-4.932941,1.143286,0.6706938,-0.3006268,-0.697359,-35.1348,22.44479,15.14268,1029.011
2.591150761,-1.222676,-5.051088,1.143286,0.6720713,-0.2942519,-0.6982587,-35.1348,22.44479,15.14268,1029.011
2.593614578,-1.345893,-5.051088,1.265431,0.6676467,-0.2937706,-0.7010938,-35.1348,22.44479,15.14268,1029.011
2.596078873,-1.284284,-5.051088,1.326504,0.6706331,-0.2981482,-0.7016485,-35.1348,22.44479,15.14268,1029.011
2.598542690,-1.407501,-5.110161,1.265431,0.6725124,-0.2917849,-0.7006336,-35.1348,22.44479,15.14268,1029.011
2.601006508,-1.407501,-5.169234,1.448649,0.6716084,-0.2942849,-0.6944169,-35.1348,22.44479,15.14268,1029.011
2.603470802,-1.407501,-4.992014,1.387576,0.6769901,-0.2990719,-0.703153,-35.1348,22.44479,15.14268,1029.011
2.605934620,-1.46911,-5.051088,1.265431,0.6706966,-0.3020754,-0.6997741,-35.1348,22.44479,15.14268,1029.011
2.608398437,-1.345893,-5.228307,1.387576,0.6720959,-0.2990977,-0.7040707,-35.1348,22.44479,15.14268,1029.011
2.610862732,-1.161067,-5.346453,1.387576,0.6775837,-0.305452,-0.6998715,-35.1348,22.44479,15.14268,1029.011
2.613326549,-1.284284,-5.346453,1.265431,0.6716231,-0.2996012,-0.702633,-35.1348,22.44479,15.14268,1029.011
2.615790367,-1.407501,-5.228307,1.265431,0.6721695,-0.3015912,-0.6978623,-35.1348,22.44479,15.14268,1029.012
2.618254661,-1.345893,-5.346453,1.448649,0.6742013,-0.3040749,-0.6911909,-35.1348,22.44479,15.14268,1029.012
2.620718479,-1.46911,-5.405527,1.448649,0.6735591,-0.2986025,-0.703598,-35.1348,22.44479,15.14268,1029.012
2.623182297,-1.407501,-5.582746,1.326504,0.673562,-0.300051,-0.7060131,-34.0962,23.83566,15.97401,1029.012
2.625646591,-1.46911,-5.523673,1.326504,0.6735473,-0.2947347,-0.6977971,-34.0962,23.83566,15.97401,1029.012
2.628110409,-1.46911,-5.405527,1.326504,0.6721022,-0.3000684,-0.7050412,-34.0962,23.83566,15.97401,1029.012
2.630574226,-1.530718,-5.641819,1.265431,0.6740701,-0.3000699,-0.7031391,-34.0962,23.83566,15.97401,1029.012
2.633038521,-1.407501,-5.523673,1.265431,0.6706813,-0.2986855,-0.695418,-34.0962,23.83566,15.97401,1029.012
2.635502338,-1.284284,-5.700892,1.326504,0.6701027,-0.2966585,-0.7049856,-34.0962,23.83566,15.97401,1029.012
2.637966156,-1.530718,-5.641819,1.326504,0.6716265,-0.2991233,-0.7011883,-34.0962,23.83566,15.97401,1029.012
2.640430450,-1.407501,-5.700892,1.326504,0.668141,-0.297146,-0.7068933,-34.0962,23.83566,15.97401,1029.012
2.642894268,-1.222676,-5.819038,1.448649,0.6667415,-0.3006052,-0.7035618,-34.0962,23.83566,15.97401,1029.012
2.645358562,-1.03785,-5.759965,1.448649,0.667196,-0.2962265,-0.700158,-34.0962,23.83566,15.97401,1029.012
2.647822380,-1.099459,-5.582746,1.387576,0.6686292,-0.2990691,-0.7107574,-34.0962,23.83566,15.97401,1029.012
2.650286198,-1.284284,-5.996258,1.204358,0.6622567,-0.2957188,-0.7068265,-34.0962,23.83566,15.97401,1029.012
2.652750492,-1.284284,-5.819038,1.448649,0.6661987,-0.2976557,-0.7059227,-34.0962,23.83566,15.97401,1029.012
2.655214310,-1.222676,-5.641819,1.570794,0.6637228,-0.2966721,-0.7087691,-34.0962,23.83566,15.97401,1029.009
2.657678127,-1.222676,-5.819038,1.570794,0.6647485,-0.2972027,-0.7025468,-34.0962,23.83566,15.97401,1029.009
2.660142422,-1.222676,-5.878111,1.387576,0.6657189,-0.3005599,-0.7102693,-34.0962,23.83566,15.97401,1029.009
2.662602425,-1.099459,-5.819038,1.387576,0.6622881,-0.2991272,-0.7087843,-34.0962,23.83566,15.97401,1029.009
2.665066242,-1.099459,-5.700892,1.387576,0.66668,-0.3014979,-0.7146061,-34.0962,23.83566,15.97401,1029.009
2.667530060,-1.099459,-5.819038,1.326504,0.6656705,-0.3005043,-0.7174648,-34.0962,23.83566,15.97401,1029.009
2.669994354,-1.161067,-5.759965,1.326504,0.6622437,-0.2961856,-0.7097104,-34.0962,23.83566,15.97401,1029.009
2.672458172,-0.9762421,-5.819038,1.204358,0.6623353,-0.3035174,-0.7102734,-35.86707,23.19108,15.96654,1029.009
2.674921989,-1.03785,-5.819038,1.326504,0.6588816,-0.3035036,-0.7150413,-35.86707,23.19108,15.96654,1029.009
2.677386284,-1.03785,-5.759965,1.082213,0.6647604,-0.3015521,-0.7093127,-35.86707,23.19108,15.96654,1029.009
2.679850101,-1.099459,-5.878111,1.265431,0.6632527,-0.2991057,-0.7107115,-35.86707,23.19108,15.96654,1029.009
2.682313919,-0.9146336,-5.819038,1.143286,0.6613291,-0.3020459,-0.7116875,-35.86707,23.19108,15.96654,1029.009
2.684779167,-0.7914166,-5.878111,0.8989954,0.6569904,-0.3059992,-0.7102553,-35.86707,23.19108,15.96654,1029.009
2.687242031,-1.099459,-5.700892,1.082213,0.6560189,-0.3074581,-0.7121824,-35.86707,23.19108,15.96654,1029.009
2.689705849,-1.03785,-5.641819,1.021141,0.6593733,-0.3044672,-0.7164956,-35.86707,23.19108,15.96654,1029.009
2.692172050,-0.7914166,-5.759965,1.021141,0.6583831,-0.3034958,-0.7164762,-35.86707,23.19108,15.96654,1029.009
2.694633961,-1.222676,-5.700892,0.960068,0.6579459,-0.3040401,-0.7097617,-35.86707,23.19108,15.96654,1029.01
2.697097778,-1.03785,-5.759965,0.8989954,0.6583291,-0.3005431,-0.7188413,-35.86707,23.19108,15.96654,1029.01
2.699562073,-0.9762421,-5.878111,0.960068,0.6607856,-0.3015045,-0.7188733,-35.86707,23.19108,15.96654,1029.01
2.702025890,-0.9146336,-5.759965,0.8379228,0.6588435,-0.3015326,-0.7169378,-35.86707,23.19108,15.96654,1029.01
2.704489708,-0.7298082,-5.937185,0.7768502,0.6617636,-0.300053,-0.7159868,-35.86707,23.19108,15.96654,1029.01
2.706954002,-0.9146336,-5.759965,0.654705,0.6564665,-0.3045169,-0.712633,-35.86707,23.19108,15.96654,1029.01
2.709419250,-0.7298082,-5.759965,0.654705,0.6549873,-0.3040304,-0.7135743,-35.86707,23.19108,15.96654,1029.01
2.714345932,-0.7914166,-5.759965,0.7768502,0.6584656,-0.30889,-0.7146185,-35.86707,23.19108,15.96654,1029.01
2.716809750,-0.8530251,-5.759965,0.7157776,0.6505213,-0.3015744,-0.7187857,-35.86707,23.19108,15.96654,1029.01
2.719273567,-0.7298082,-5.878111,0.5325598,0.648573,-0.3001503,-0.7149147,-35.86707,23.19108,15.96654,1029.01
2.721737862,-0.7298082,-5.878111,0.4104146,0.6535434,-0.3050296,-0.7121338,-35.86707,23.19108,15.96654,1029.01
2.724201679,-0.6681997,-5.641819,0.5325598,0.65307,-0.3074595,-0.7145559,-35.50282,24.22552,15.52532,1029.01
2.726665974,-0.6681997,-5.582746,0.4714872,0.650064,-0.3045045,-0.7197742,-35.50282,24.22552,15.52532,1029.01
