Time (s),Gyroscope X (deg/s),Gyroscope Y (deg/s),Gyroscope Z (deg/s),Accelerometer X (g),Accelerometer Y (g),Accelerometer Z (g),Magnetometer X (uT),Magnetometer Y (uT),Magnetometer Z (uT),Barometer (hPa)
0.004883766,-0.1260054,0.2618175,0.0537139,-0.02087947,-0.002590505,1.011598,20.76009,13.30546,-40.72247,1028.317
0.007351875,-0.002836749,-0.03221852,-0.00754109,-0.02193088,-0.002650587,1.008738,20.76009,13.30546,-40.72247,1028.317
0.009819508,-0.125965,0.1441639,-0.06877685,-0.01905637,-0.00119129,1.007215,20.76009,13.30546,-40.72247,1028.317
0.012288570,-0.1874899,0.08532784,0.053721,-0.01560872,0.001303834,1.009524,20.76009,13.30546,-40.72247,1028.317
0.014756203,-0.1258665,0.1440918,0.1149422,-0.02088495,0.0003301725,1.01303,20.76009,13.30546,-40.72247,1028.317
0.017224312,-0.248956,0.261628,-0.007570103,-0.02146832,-0.005098756,1.00633,20.76009,13.30546,-40.72247,1028.317
0.019692898,-0.002619609,0.08517357,0.1149085,-0.02196258,-0.00218395,1.007774,20.76009,13.30546,-40.72247,1028.317
0.022161007,0.05894575,0.1439376,0.2373487,-0.02053684,-0.0002433956,1.007249,20.76009,13.30546,-40.72247,1028.318
0.024629116,-0.002637312,0.08510158,-0.00767839,-0.02190809,-0.001660911,1.010177,20.76009,13.30546,-40.72247,1028.318
0.027097702,-0.002636477,0.02628408,0.1148003,-0.02483345,-0.005590362,1.008342,20.76009,13.30546,-40.72247,1028.318
0.029565811,-0.002635643,0.08506659,0.1760023,-0.01954149,-0.003144277,1.006273,20.76009,13.30546,-40.72247,1028.318
0.032039165,0.1204943,0.2026214,0.1147089,-0.02146491,-0.003634389,1.007286,20.76009,13.30546,-40.72247,1028.318
0.034498214,-0.1258018,0.3201392,-0.007803366,-0.01445564,0.00404069,0.9988969,20.76009,13.30546,-40.72247,1028.318
0.036966324,-0.06419767,0.1436664,-0.007800907,-0.01710467,-0.00263218,1.006209,20.76009,13.30546,-40.72247,1028.318
0.039434433,-0.002612978,0.3199936,0.1759159,-0.01600219,-0.003513429,1.010516,20.76009,13.30546,-40.72247,1028.318
0.041903019,-0.1257413,0.08472999,0.2370988,-0.009255975,-0.004469279,1.006018,20.76009,13.30546,-40.72247,1028.318
0.044371128,0.05899188,0.1434941,0.1757861,-0.01363741,-0.004023237,1.00709,20.76009,13.30546,-40.72247,1028.318
0.046838760,0.05897334,-0.03292322,0.1757309,-0.01414398,-0.001116486,1.008053,20.76009,13.30546,-40.72247,1028.318
0.049307823,-0.1257388,-0.03291288,0.1756757,-0.01141377,0.001710491,1.001717,20.76009,13.30546,-40.72247,1028.318
0.051775455,-0.06413475,0.2610513,0.2368586,-0.007280143,0.0009289123,1.009796,20.76009,13.30546,-40.72247,1028.318
0.054243564,0.120579,0.2021785,0.1755461,-0.016519,-0.004999781,1.00861,20.74529,13.65291,-41.51044,1028.318
0.056712150,-0.002587944,-0.03304808,0.1142528,-0.01608812,-0.006981315,1.005239,20.74529,13.65291,-41.51044,1028.318
0.059180259,-0.06415166,0.08454383,0.2366932,-0.01427598,0.0002592523,1.00372,20.74529,13.65291,-41.51044,1028.318
0.061648369,-0.002566963,0.02572651,0.2366188,-0.01319971,-0.003076037,1.005631,20.74529,13.65291,-41.51044,1028.316
0.064116955,-0.06413069,0.1433,0.3590207,-0.01809271,-0.003625534,1.005276,20.74529,13.65291,-41.51044,1028.316
0.066585064,-0.1256751,0.2020457,0.3589079,-0.02007609,-0.001718007,1.005318,20.74529,13.65291,-41.51044,1028.316
0.069053173,0.1206226,0.1431915,0.4200333,-0.02026123,0.004984105,1.001927,20.74529,13.65291,-41.51044,1028.316
0.071525097,-0.002544418,-0.1508073,0.3586632,-0.02037751,0.00783227,0.9990314,20.74529,13.65291,-41.51044,1028.316
0.073989391,-0.002543613,0.1431938,0.3585505,-0.01673082,0.006071262,1.006645,20.74529,13.65291,-41.51044,1028.316
0.076457500,-0.1256719,0.3783119,0.4809141,-0.01724057,0.004102162,1.004742,20.74529,13.65291,-41.51044,1028.316
0.078926086,0.1206258,-0.03334227,0.419525,-0.02350825,0.0006707795,1.006358,20.74529,13.65291,-41.51044,1028.316
0.081394195,0.1205879,-0.1509133,0.1744407,-0.02993486,0.00639555,1.006978,20.74529,13.65291,-41.51044,1028.316
0.083862304,-0.1257082,-0.03328438,0.3581002,-0.02739591,0.005024984,1.009807,20.74529,13.65291,-41.51044,1028.316
0.086330890,-0.1872332,-0.268437,0.480464,-0.02319341,-0.00187408,0.9981799,20.74529,13.65291,-41.51044,1028.316
0.088799000,0.1206483,-0.09198034,0.2353605,-0.02266453,0.003031813,1.002477,20.74529,13.65291,-41.51044,1028.316
0.091267109,-0.06408323,0.02563006,0.2965247,-0.02631621,0.003154061,1.012674,20.74529,13.65291,-41.51044,1028.316
0.093735695,-0.1256277,-0.2683318,0.1739553,-0.02070871,-0.007179167,0.996695,20.74529,13.65291,-41.51044,1028.316
0.096207619,0.05910544,-0.4446197,0.2351388,-0.01494346,-0.007347586,1.011467,20.74529,13.65291,-41.51044,1028.316
0.098671436,0.3053451,0.3785905,0.3575411,-0.03072958,0.007478229,1.014693,20.74529,13.65291,-41.51044,1028.316
0.101140022,0.1205555,0.7900069,0.1124763,-0.05381747,0.02045939,0.9993454,20.74529,13.65291,-41.51044,1028.317
0.103608131,-0.1873051,-0.1508934,-0.1325115,-0.05385687,0.005324909,0.9893029,19.99552,14.02224,-40.73055,1028.317
0.106076240,-0.06411716,-1.26787,-0.193708,-0.0315571,-0.002496893,0.9959882,19.99552,14.02224,-40.73055,1028.317
0.108544826,0.5515484,0.4374599,-0.2548853,-0.03565428,0.009658903,1.033576,19.99552,14.02224,-40.73055,1028.317
0.111012935,-0.06427029,1.260393,-0.3160433,-0.05771443,0.009038092,1.012483,19.99552,14.02224,-40.73055,1028.317
0.113481045,-0.3720728,-0.7976794,-0.3771822,-0.0437263,-0.01852087,0.970377,19.99552,14.02224,-40.73055,1028.317
0.115949631,0.3668186,-1.385336,-0.2545874,-0.009887895,-0.01337429,1.052266,19.99552,14.02224,-40.73055,1028.317
0.118417740,0.3051388,0.6139846,-0.3769837,-0.004245348,0.001345005,1.032815,19.99552,14.02224,-40.73055,1028.317
0.120886802,-0.6799897,1.26049,-0.4993415,-0.03663833,-0.02753846,0.9745652,19.99552,14.02224,-40.73055,1028.317
0.123353958,0.243692,-0.5036287,-0.5604228,-0.04044712,-0.01923361,0.9832894,19.99552,14.02224,-40.73055,1028.317
0.125822067,0.7976964,-0.621052,-0.4990086,-0.02421774,0.01319226,1.004881,19.99552,14.02224,-40.73055,1028.317
0.128290176,-0.5569742,0.613749,-0.4376137,-0.03005066,0.004684279,1.020462,19.99552,14.02224,-40.73055,1028.317
0.130758762,-0.3721056,0.2020209,-0.4987143,-0.04678525,-0.02124897,0.9829769,19.99552,14.02224,-40.73055,1028.317
0.133226871,0.613044,-0.2095779,-0.7435102,-0.04808519,-0.00914659,1.015201,19.99552,14.02224,-40.73055,1028.317
0.135694980,0.05877049,-0.1507213,-0.7432766,-0.03918715,-0.006538566,1.020258,19.99552,14.02224,-40.73055,1028.317
0.138163566,-0.3721997,-0.03309242,-0.7430431,-0.03082727,-0.02913901,0.9903043,19.99552,14.02224,-40.73055,1028.317
0.140631676,0.6745144,0.2608718,-0.6203334,-0.03825748,-0.0007096436,1.021654,19.99552,14.02224,-40.73055,1028.32
0.143099308,0.1202216,-0.03316398,-0.6813766,-0.04005032,0.01336635,0.9980632,19.99552,14.02224,-40.73055,1028.32
0.145568371,-0.9264134,-0.3271074,-0.6811626,-0.03257699,-0.02366691,1.001394,19.99552,14.02224,-40.73055,1028.32
0.148036003,0.366733,-0.2094231,-0.6809486,-0.02477777,-0.02212475,1.00119,19.99552,14.02224,-40.73055,1028.32
0.150504112,0.6128759,-0.03298502,-0.7419728,-0.02900179,0.01368884,1.009331,19.99552,14.02224,-40.73055,1028.32
0.152972698,-0.2492201,-0.3857192,-0.6805016,-0.02710934,0.004411132,1.001622,19.99552,14.02224,-40.73055,1028.32
0.155445576,-0.1260128,-0.2092257,-0.7415259,-0.01988071,-0.006290557,0.9913773,20.00108,13.65143,-41.11473,1028.32
0.157908916,0.4281077,0.4375383,-0.8025311,-0.02322193,0.005731948,1.020285,20.00108,13.65143,-41.11473,1028.32
0.160380363,-0.2492368,0.1434471,-0.6798027,-0.03308291,-0.00693983,0.9912331,20.00108,13.65143,-41.11473,1028.32
0.162845611,-0.1875939,0.2021928,-0.618351,-0.05022353,-0.02975984,0.9965725,20.00108,13.65143,-41.11473,1028.32
0.165313244,0.3665459,0.2021292,-0.6181567,-0.05471489,-0.01671393,1.000482,20.00108,13.65143,-41.11473,1028.32
0.167782306,-0.00295651,-0.4446326,-0.4342481,-0.03974709,0.00284251,1.003873,20.00108,13.65143,-41.11473,1028.32
0.170249939,-0.3107783,-0.6208652,-0.4341117,-0.02804648,-0.01590332,1.029638,20.00108,13.65143,-41.11473,1028.32
0.172718048,0.1818357,0.6139358,-0.4952135,-0.04253105,-0.01074196,1.002074,20.00108,13.65143,-41.11473,1028.32
0.175186634,0.2433431,0.6137429,-0.4338198,-0.06104532,-0.003128167,1.009249,20.00108,13.65143,-41.11473,1028.32
0.177654743,-0.06455606,-0.7974281,-0.4336835,-0.04397164,-0.003746092,0.9881274,20.00108,13.65143,-41.11473,1028.32
0.180122852,0.3048515,-0.3856423,-0.4335473,-0.0218479,-0.005206501,1.029438,20.00108,13.65143,-41.11473,1028.32
0.182591438,-0.003067017,0.555131,-0.4334111,-0.02909749,0.001268417,1.017565,20.00108,13.65143,-41.11473,1028.318
0.187527180,0.05867352,-0.4446052,-0.3718622,-0.04021052,-0.0073817,0.9991146,20.00108,13.65143,-41.11473,1028.318
0.189996242,0.3664778,-0.5620471,-0.3717453,-0.02535256,0.0007198155,1.010735,20.00108,13.65143,-41.11473,1028.318
0.192463875,-0.1261537,0.0260371,-0.4328667,-0.03132185,0.005769145,1.02867,20.00108,13.65143,-41.11473,1028.318
0.194937229,-0.1876786,0.2024012,-0.555207,-0.04969289,-0.004036253,0.9747997,20.00108,13.65143,-41.11473,1028.318
0.197400570,0.4280258,-0.38557,-0.5550326,-0.05781107,0.005736537,0.9879577,20.00108,13.65143,-41.11473,1028.318
0.199868679,-0.06462498,-0.6794026,-0.6160963,-0.04536277,0.004397593,1.014595,20.00108,13.65143,-41.11473,1028.318
0.202336788,-0.1261692,0.02629991,-0.6159027,-0.03224602,-0.005243991,1.005641,20.00108,13.65143,-41.11473,1028.318
0.204805374,0.2432577,0.3790362,-0.6157092,-0.04759689,-0.002317751,1.01901,21.13374,13.31009,-40.72496,1028.318
0.207273483,-0.126206,-0.09140892,-0.4318014,-0.0561033,-0.001398491,0.993237,21.13374,13.31009,-40.72496,1028.318
0.209741592,-0.06460182,-0.5617063,-0.3704277,-0.03613162,-0.005274827,1.006702,21.13374,13.31009,-40.72496,1028.318
0.212210178,0.1201121,-0.267576,-0.3090732,-0.02781034,-0.001755513,1.008883,21.13374,13.31009,-40.72496,1028.318
0.214677810,-0.003054723,0.3792064,-0.3089761,-0.04149425,-0.002893405,1.008753,21.13374,13.31009,-40.72496,1028.318
0.217145920,-0.1877474,0.1439242,-0.4925934,-0.03987448,-0.01137481,0.9909419,21.13374,13.31009,-40.72496,1028.318
0.219614506,0.3048279,-0.5616101,-0.2474861,-0.0378104,-0.01030526,0.9956973,21.13374,13.31009,-40.72496,1028.318
0.222082615,0.1200385,-0.3850614,-0.3086465,-0.03237851,0.005218255,1.025331,21.13374,13.31009,-40.72496,1028.316
0.224550724,-0.2493864,0.2617579,-0.4922639,-0.04032521,-0.002095612,0.9976522,21.13374,13.31009,-40.72496,1028.316
0.227019310,-0.06461446,0.02651262,-0.5533474,-0.05395416,-0.009533437,0.996103,21.13374,13.31009,-40.72496,1028.316
0.229487419,0.05853491,-0.03228647,-0.4919354,-0.04382964,0.002682758,0.9972402,21.13374,13.31009,-40.72496,1028.316
0.231955528,-0.003048018,0.08530521,-0.3693046,-0.03425062,0.0003753267,1.025879,21.13374,13.31009,-40.72496,1028.316
0.234419823,-0.003047064,0.08527841,-0.4304267,-0.03729359,-0.006555375,1.017804,21.13374,13.31009,-40.72496,1028.316
0.236887932,0.1816475,-0.0323299,-0.3078153,-0.04800838,-0.003074447,1.002663,21.13374,13.31009,-40.72496,1028.316
0.239356041,0.05846135,0.02647102,-0.3077185,-0.04293986,0.002463708,1.012617,21.13374,13.31009,-40.72496,1028.316
0.241824627,-0.06468609,-0.1499096,-0.2463837,-0.03079201,-0.005234439,1.005123,21.13374,13.31009,-40.72496,1028.316
0.244292736,0.1815924,-0.03228095,-0.3075445,-0.03057773,-0.001195176,1.015687,21.13374,13.31009,-40.72496,1028.316
0.246760845,0.1199708,0.08531072,-0.3074479,-0.03729295,0.00726496,1.00668,21.13374,13.31009,-40.72496,1028.316
0.249229431,-0.06476049,-0.09108835,-0.184875,-0.03908547,-0.003861789,1.006771,21.13374,13.31009,-40.72496,1028.316
0.251697540,0.1199535,-0.1498505,-0.06234066,-0.03711647,-0.001392331,1.008636,21.13374,13.31009,-40.72496,1028.316
0.254165172,-0.003213301,0.02656883,-0.1235592,-0.0395695,0.00344612,1.011084,20.76009,13.30546,-40.72247,1028.316
0.256633758,-0.1263414,0.2617235,-0.1847585,-0.04445177,0.0004667509,1.009776,20.76009,13.30546,-40.72247,1028.316
0.259101868,-0.06473713,0.2028505,-0.1847005,-0.04717174,-0.0002306625,0.9987803,20.76009,13.30546,-40.72247,1028.316
0.261569977,0.05841228,-0.2675393,-0.1846424,-0.04055776,0.005864251,1.012062,20.76009,13.30546,-40.72247,1028.319
0.264038563,-0.1262997,0.1440801,-0.06210819,-0.03694047,-0.003226649,1.014413,20.76009,13.30546,-40.72247,1028.319
0.266506672,-0.12626,0.2616163,-0.1845649,-0.04131301,-0.004236914,1.015009,20.76009,13.30546,-40.72247,1028.319
0.268974781,0.05847329,0.2027434,0.06044554,-0.04314366,-0.0005939435,1.003011,20.76009,13.30546,-40.72247,1028.319
0.271443367,0.1200195,0.1438889,0.06042656,-0.03730478,0.0004339293,1.002377,20.76009,13.30546,-40.72247,1028.319
0.273911476,-0.1262764,0.02626221,-0.1845449,-0.03601923,-0.002764387,1.012463,20.76009,13.30546,-40.72247,1028.319
0.276379108,-0.003107652,0.3202077,-0.1232488,-0.03611954,-0.001855286,1.009094,20.76009,13.30546,-40.72247,1028.319
0.278847694,0.1200224,0.5552702,-0.06197198,-0.04097585,0.001030874,1.012092,20.76009,13.30546,-40.72247,1028.319
0.281315803,-0.003144369,0.02597891,0.06052374,-0.04062591,-0.0005162563,1.005834,20.76009,13.30546,-40.72247,1028.319
0.283783912,-0.1262725,0.02597074,0.1217429,-0.03854928,-0.002850136,1.009159,20.76009,13.30546,-40.72247,1028.319
0.286252498,0.05846082,0.2611256,0.06046648,-0.0455155,0.0003986135,1.006435,20.76009,13.30546,-40.72247,1028.319
0.288720608,0.1815715,0.2610436,0.06044748,-0.04604303,0.001342134,1.005482,20.76009,13.30546,-40.72247,1028.319
0.291188717,0.11995,0.02579853,0.06042849,-0.04015834,0.000937866,1.005816,20.76009,13.30546,-40.72247,1028.319
0.293657303,-0.003216818,-0.03300034,0.1216476,-0.03705286,-0.005737089,1.008652,20.76009,13.30546,-40.72247,1028.319
0.296125412,-0.06478034,0.3785453,0.1216094,-0.03691244,-0.001746166,1.016331,20.76009,13.30546,-40.72247,1028.319
0.298593044,0.05836909,0.1432634,0.1215712,-0.04006097,-0.008258576,1.004408,20.76009,13.30546,-40.72247,1028.319
0.301062107,-0.06477833,-0.2095262,0.121533,-0.03722314,-0.01023493,0.9995319,20.76009,13.30546,-40.72247,1028.318
0.303529739,-0.06475797,-0.09187882,0.1214948,-0.03224261,-0.003779622,1.006597,20.74837,13.6607,-41.11972,1028.318
0.305997848,-0.06473763,0.1433131,0.2439329,-0.03511555,-0.002800994,1.009553,20.74837,13.6607,-41.11972,1028.318
0.308466434,0.1199763,0.3784311,0.2438563,-0.03284035,-0.004831567,1.001805,20.74837,13.6607,-41.11972,1028.318
0.310934543,0.05837409,0.2607307,0.3050178,-0.04153802,-0.005846309,1.005398,20.74837,13.6607,-41.11972,1028.318
0.313402653,-0.1263379,0.201858,0.1212076,-0.03858756,-0.008723719,1.004372,20.74837,13.6607,-41.11972,1028.318
0.315871239,0.05839545,0.1430038,0.2436458,-0.03336606,-0.004861608,1.000375,20.74837,13.6607,-41.11972,1028.318
0.318339825,0.0583771,0.1429589,0.2435692,-0.03323978,9.481609E-05,1.00805,20.74837,13.6607,-41.11972,1028.318
0.320806980,-0.1263349,0.2017048,0.2434927,-0.03684198,-0.005425727,0.9980588,20.74837,13.6607,-41.11972,1028.318
0.323276043,-0.06473061,0.1428506,0.3046544,-0.03621962,-0.004357671,1.003813,20.74837,13.6607,-41.11972,1028.318
0.325743675,-0.003145739,0.1428057,0.3657967,-0.03419406,-0.005750218,1.005692,20.74837,13.6607,-41.11972,1028.318
0.328211784,-0.06470929,0.3191332,0.3656818,-0.02878059,-0.005661486,1.006999,20.74837,13.6607,-41.11972,1028.318
0.330680370,-0.06468897,0.0250791,0.365567,-0.03251209,0.001892531,0.9993629,20.74837,13.6607,-41.11972,1028.318
0.333148479,-0.003104106,0.02507122,0.4879283,-0.03786719,-0.00303177,0.9975938,20.74837,13.6607,-41.11972,1028.318
0.335616588,-0.06466767,0.2014356,0.6102513,-0.02885652,-0.001324784,1.006502,20.74837,13.6607,-41.11972,1028.318
0.338085174,-0.06464736,0.2013723,0.5488214,-0.0318366,-0.002365788,1.004175,20.74837,13.6607,-41.11972,1028.318
0.340553284,-0.06462705,0.1425183,0.6098872,-0.0352651,-0.001924118,1.00426,20.74837,13.6607,-41.11972,1028.32
0.343020916,-0.1877358,0.3776366,0.5484574,-0.03859305,-0.005803039,1.005804,20.74837,13.6607,-41.11972,1028.32
0.345489979,0.1201459,-0.0340174,0.487047,-0.03378463,-0.002872016,1.004227,20.74837,13.6607,-41.11972,1028.32
0.347957611,-0.003020972,0.02478404,0.5481322,-0.0347289,-0.0009124614,1.006649,20.74837,13.6607,-41.11972,1028.32
0.350425720,-0.1877137,0.3187301,0.5479599,-0.03661173,-0.003325524,1.00815,20.74837,13.6607,-41.11972,1028.32
0.352894306,0.0586035,0.3186299,0.6090259,-0.0351682,-0.004297588,1.006674,21.12201,13.66533,-41.12222,1028.32
0.355362415,-0.06454399,0.08336677,0.5475965,-0.03502731,-0.007129638,1.010531,21.12201,13.66533,-41.12222,1028.32
0.357830524,0.05860536,0.4360851,0.6699007,-0.03906792,-0.003362926,1.007731,21.12201,13.66533,-41.12222,1028.32
0.360299110,-0.06454213,0.4947389,0.547214,-0.0351331,-0.003299858,1.008593,21.12201,13.66533,-41.12222,1028.32
0.362767219,-0.06452185,0.3770019,0.5470421,-0.03226016,-0.00427849,1.005637,21.12201,13.66533,-41.12222,1028.32
0.365235329,-0.002937049,0.2005112,0.6693465,-0.02934394,0.004518758,1.009858,21.12201,13.66533,-41.12222,1028.32
0.367703914,-0.06450066,0.3180298,0.6691362,-0.03131088,-0.002335748,1.005605,21.12201,13.66533,-41.12222,1028.32
0.370171547,-0.002915859,0.1415576,0.6689259,-0.03317617,-0.004249943,1.008067,21.12201,13.66533,-41.12222,1028.32
0.372639656,0.05864958,-0.03485918,0.6074777,-0.03173287,-0.001810521,1.008501,21.12201,13.66533,-41.12222,1028.32
0.375108242,0.05863115,0.2591056,0.4848106,-0.03315543,0.001124777,1.011894,21.12201,13.66533,-41.12222,1028.32
0.377576351,-0.002951801,0.1414426,0.5458964,-0.03289349,0.000494808,1.002747,21.12201,13.66533,-41.12222,1028.32
0.380044460,-0.06451541,0.02381669,0.6682011,-0.02923267,-0.0022317,1.010364,21.12201,13.66533,-41.12222,1028.32
0.384981155,-0.1260394,0.317774,0.6678006,-0.03229733,-0.0008911751,1.006106,21.12201,13.66533,-41.12222,1028.317
0.387449264,-0.1259999,0.4352557,0.7900671,-0.02652184,0.00106997,1.003545,21.12201,13.66533,-41.12222,1028.317
0.389917850,-0.06439571,0.0823744,0.6061045,-0.02393706,-0.001732729,1.007341,21.12201,13.66533,-41.12222,1028.317
0.392385959,-0.06437548,0.1411393,0.4834378,-0.03036343,0.0005805548,1.006051,21.12201,13.66533,-41.12222,1028.317
0.394853592,-0.002790719,0.1998857,0.5445241,-0.02970914,-0.002229512,1.010858,21.12201,13.66533,-41.12222,1028.317
0.397322178,-0.1874835,0.02345061,0.6055912,-0.0263506,-0.008078126,1.005022,21.12201,13.66533,-41.12222,1028.317
0.399790287,-0.12586,0.08223402,0.666639,-0.02306665,-0.003740625,1.002034,21.12201,13.66533,-41.12222,1028.317
0.402258396,-0.06425594,0.3173712,0.6051915,-0.03078859,-0.003770072,1.006079,21.13374,13.31009,-40.72496,1028.317
0.404726982,-0.002671212,0.3760623,0.6050013,-0.03141643,-0.001917452,1.001757,21.13374,13.31009,-40.72496,1028.317
0.407195091,-0.06423491,0.1407811,0.4210969,-0.03275259,-0.00233724,1.006604,21.13374,13.31009,-40.72496,1028.317
0.409663677,-0.06421474,0.02315535,0.4822027,-0.02787348,-0.004233725,1.005045,21.13374,13.31009,-40.72496,1028.317
0.412131786,0.05893451,-0.2708057,0.6045275,-0.02859799,-0.003419122,0.9963983,21.13374,13.31009,-40.72496,1028.317
0.414599895,0.05891599,0.02323315,0.4206232,-0.02690324,-0.000327751,1.006929,21.13374,13.31009,-40.72496,1028.317
0.417067528,-0.002667055,0.2583889,0.4817292,-0.01911792,-0.001231575,1.004811,21.13374,13.31009,-40.72496,1028.317
0.419536114,-0.06423075,0.02314466,0.6652922,-0.02156681,-0.005163215,1.002483,21.13374,13.31009,-40.72496,1028.317
0.422004223,-0.002646044,0.08192816,0.6038451,-0.02018006,0.00113821,1.002903,21.13374,13.31009,-40.72496,1028.321
0.424472332,-0.06420974,0.08190242,0.5424173,-0.0182865,0.001121402,1.000449,21.13374,13.31009,-40.72496,1028.321
0.426940918,-0.06418957,0.08187669,0.5422469,-0.01865377,-0.001241822,1.003837,21.13374,13.31009,-40.72496,1028.321
0.429409027,-0.002604872,-0.1533121,0.4808384,-0.01767097,-0.0007392764,1.004291,21.13374,13.31009,-40.72496,1028.321
0.431877136,-0.06416859,-0.1532639,0.5419254,-0.01870277,-0.004685536,1.000003,21.13374,13.31009,-40.72496,1028.321
0.434341431,0.05898064,-0.03563425,0.7254695,-0.02304386,-0.002750954,1.003473,21.13374,13.31009,-40.72496,1028.321
0.436809540,-0.002602413,-0.3295768,0.5415273,-0.01910378,-0.002197077,1.004815,21.13374,13.31009,-40.72496,1028.321
0.439277649,-0.002601594,-0.2118918,0.6025953,-0.02101123,-0.004626254,1.005354,21.13374,13.31009,-40.72496,1028.321
0.441746235,0.05896376,0.08212856,0.6636441,-0.0182213,-0.0007854309,1.001899,21.13374,13.31009,-40.72496,1028.321
0.444214344,-0.1257484,-0.03547877,0.6634356,-0.0197738,-0.0008594375,0.9985704,21.13374,13.31009,-40.72496,1028.321
0.446682453,-0.06414433,-0.09425837,0.6632272,-0.01828261,-0.004237203,0.997584,21.13374,13.31009,-40.72496,1028.321
0.449151039,-0.002559647,-0.1530195,0.6630188,-0.02199585,-0.004155239,1.005377,21.13374,13.31009,-40.72496,1028.321
0.451619148,-0.06412338,-0.09418069,0.7240486,-0.02435722,-0.002181066,1.009759,21.12757,13.29452,-41.5064,1028.321
0.454086780,-0.002538696,0.02343041,0.7238212,-0.02631756,-0.002695352,1.00933,21.12757,13.29452,-41.5064,1028.321
0.456555843,-0.06410243,-0.21174,0.7235938,-0.0216286,-0.001792016,1.00199,21.12757,13.29452,-41.5064,1028.321
0.459023476,0.05904678,-0.2704642,0.7233664,-0.02290503,-0.001197957,1.009719,21.12757,13.29452,-41.5064,1028.321
0.461491585,0.05902822,-0.03521623,0.7231392,-0.02685717,-0.005171373,1.005985,21.12757,13.29452,-41.5064,1028.318
0.463960171,-0.1872485,-0.09399591,0.7841502,-0.02725978,-0.005120844,1.009364,21.12757,13.29452,-41.5064,1028.318
0.466428280,-0.06406055,-0.2115479,0.7839038,-0.02290479,-0.004609443,1.007808,21.12757,13.29452,-41.5064,1028.318
0.468896389,-0.06404042,-0.1526907,0.6611813,-0.0229221,-0.008519793,1.004937,21.12757,13.29452,-41.5064,1028.318
0.471364975,-0.1255849,-0.09385195,0.7834498,-0.02383127,-0.00556251,1.009279,21.12757,13.29452,-41.5064,1028.318
0.473833084,-0.002416313,-0.09382246,0.9056799,-0.02534184,-0.001710052,1.009782,21.12757,13.29452,-41.5064,1028.318
0.476300716,0.05914898,-0.09379299,0.7829192,-0.02723015,-0.001202436,1.012715,21.12757,13.29452,-41.5064,1028.318
0.478769779,-0.06399867,-0.09376353,0.660197,-0.03088342,-0.005781649,1.001278,21.12757,13.29452,-41.5064,1028.318
0.481237411,-0.2486722,-0.3288971,0.7212276,-0.02515376,-0.002388366,0.9977504,21.12757,13.29452,-41.5064,1028.318
0.483705521,-0.1870295,0.200323,0.9659536,-0.02547885,-0.004236611,1.003059,21.12757,13.29452,-41.5064,1028.318
0.486174106,-0.1254063,-0.03490293,0.9656501,-0.0236115,-0.006707462,0.9982102,21.12757,13.29452,-41.5064,1028.318
0.488642216,-0.06380229,-0.2112642,0.7816324,-0.02613473,-0.003864469,0.9968189,21.12757,13.29452,-41.5064,1028.318
0.491110325,-0.06378224,-0.2111979,0.7813869,-0.02431457,-0.008489059,1.007859,21.12757,13.29452,-41.5064,1028.318
0.493578911,-0.0637622,-0.09354998,0.8423795,-0.02381006,-0.007010764,1.009284,21.12757,13.29452,-41.5064,1028.318
0.496047020,0.05938689,-0.2111021,0.8421148,-0.02733205,-0.002731262,1.007912,21.12757,13.29452,-41.5064,1028.318
0.498514652,-0.06376083,-0.09345427,0.8418503,-0.01967691,-0.003232908,1.000984,21.12757,13.29452,-41.5064,1028.318
0.500983715,-0.0637408,-0.328588,0.7803477,-0.02270623,-0.004306138,0.9967338,20.75701,13.29768,-41.11319,1028.32
0.503451347,-0.1868499,0.08305059,0.8413407,-0.02596397,-0.006189598,1.002117,20.75701,13.29768,-41.11319,1028.32
0.505919456,-0.1252266,-0.2109293,0.7798382,-0.02557916,-0.003327508,0.9996899,20.75701,13.29768,-41.11319,1028.32
0.508388042,-0.1251873,-0.4460261,0.8408313,-0.02357981,-0.007174093,0.9991738,20.75701,13.29768,-41.11319,1028.32
0.510856151,-0.2482771,-0.5634675,1.024282,-0.01519833,-0.009463906,1.000414,20.75701,13.29768,-41.11319,1028.32
0.513324737,-0.1866345,-0.09296435,0.9014835,-0.01523185,-0.008023711,0.9999283,20.75701,13.29768,-41.11319,1028.32
0.515792847,-0.06344679,-0.2105167,0.8399622,-0.02261457,-0.007170413,0.9986682,20.75701,13.29768,-41.11319,1028.32
0.518260956,-0.186556,-0.1516598,1.023413,-0.01948812,-0.01188214,1.00342,20.75701,13.29768,-41.11319,1028.32
0.520729065,-0.1864973,-0.2691936,0.9006149,-0.01982893,-0.01520281,1.007292,20.75701,13.29768,-41.11319,1028.32
0.523197651,-0.00174512,-0.5630629,0.8390939,-0.02099503,-0.009976801,1.002969,20.75701,13.29768,-41.11319,1028.32
0.525665283,-0.001744568,-0.4453045,0.9000683,-0.0194407,-0.01087635,1.005821,20.75701,13.29768,-41.11319,1028.32
0.528133392,-0.3095667,-0.2100015,0.7160712,-0.02181048,-0.01426884,1.006857,20.75701,13.29768,-41.11319,1028.32
0.530601978,-0.1247759,-0.3275171,0.8383225,-0.02316212,-0.01957253,1.008357,20.75701,13.29768,-41.11319,1028.32
0.533070087,-0.06317209,-0.1510419,0.9605353,-0.02501533,-0.01806718,1.01321,20.75701,13.29768,-41.11319,1028.32
0.535538673,-0.1247168,-0.268576,0.9602336,-0.02307253,-0.01805176,1.012679,20.75701,13.29768,-41.11319,1028.32
0.538006782,-0.06311306,-0.03332861,1.02117,-0.02419575,-0.02254524,1.004545,20.75701,13.29768,-41.11319,1028.32
0.540474892,-0.001528695,-0.1508996,1.082087,-0.0217961,-0.01864582,1.00495,20.75701,13.29768,-41.11319,1028.318
0.542943001,-0.06309275,-0.1508522,1.081747,-0.02158682,-0.01850885,1.013125,20.75701,13.29768,-41.11319,1028.318
0.545416355,0.06005614,-0.03322335,1.081408,-0.02209316,-0.01901359,1.012177,20.75701,13.29768,-41.11319,1028.318
0.547879219,-0.001527265,-0.03321292,1.081068,-0.02136046,-0.01331358,1.00588,20.75701,13.29768,-41.11319,1028.318
0.550348282,-0.06309132,-0.09199323,1.01949,-0.02135181,-0.01135841,1.007315,21.12201,13.66533,-41.12222,1028.318
0.552815914,-0.1246361,0.2019894,1.080408,-0.02368306,-0.01228879,1.011227,21.12201,13.66533,-41.12222,1028.318
0.555284023,-0.001467809,-0.1508186,1.01883,-0.01845632,-0.00793588,1.007709,21.12201,13.66533,-41.12222,1028.318
0.557752132,0.1216617,0.3195549,1.01851,-0.02198195,-0.001709253,1.007291,21.12201,13.66533,-41.12222,1028.318
0.560220718,-0.001505569,-0.03329006,1.079429,-0.02558281,-0.00138039,1.000644,21.12201,13.66533,-41.12222,1028.318
0.562688827,-0.06306963,-0.2684426,1.017851,-0.01869253,-0.0002924353,1.002871,21.12201,13.66533,-41.12222,1028.318
0.565157413,-0.06304981,0.08438627,1.07877,-0.01862938,0.002185779,1.006709,21.12201,13.66533,-41.12222,1028.318
0.567625523,-0.1861591,-0.03322177,1.078431,-0.02007268,-0.0002536401,1.006275,21.12201,13.66533,-41.12222,1028.318
0.572562218,-0.06291305,-0.3858346,0.9553154,-0.01885717,0.01519588,1.005218,21.12201,13.66533,-41.12222,1028.318
0.575029850,0.1218003,-0.09175961,0.9550153,-0.01632711,0.01528163,1.008522,21.12201,13.66533,-41.12222,1028.318
0.577497959,-0.1860607,0.08464149,0.832239,-0.01986482,0.01808871,1.005713,21.12201,13.66533,-41.12222,1028.318
0.579966545,-0.0628731,-0.1505481,0.7707395,-0.01730856,0.0206285,1.011413,21.12201,13.66533,-41.12222,1028.318
0.582434654,-0.1244179,-0.1505008,0.6480211,-0.01781465,0.01671227,1.008554,21.12201,13.66533,-41.12222,1028.321
0.584902763,-0.1243788,-0.03287204,0.5253413,-0.01446183,0.01719582,1.006061,21.12201,13.66533,-41.12222,1028.321
0.587371349,-0.1243397,0.02592905,0.2802237,-0.01789082,0.02446046,1.009968,21.12201,13.66533,-41.12222,1028.321
0.589839458,-0.1858652,-0.2092421,0.402612,-0.01792981,0.02882134,1.010914,21.12201,13.66533,-41.12222,1028.321
0.592307568,-0.001113191,-0.3267579,0.2187711,-0.0157825,0.02165995,1.014257,21.12201,13.66533,-41.12222,1028.321
0.594779491,-0.001112849,-0.09149222,0.03498799,-0.01835132,0.02252359,1.009987,21.12201,13.66533,-41.12222,1028.321
0.597244263,-0.06267704,-0.03267273,-0.02626112,-0.01909632,0.01681552,1.015804,21.12201,13.66533,-41.12222,1028.321
0.599711895,-0.001092821,-0.03266247,-0.087491,-0.01632393,0.02015748,1.01139,21.13066,13.30231,-41.11568,1028.321
0.602180481,-0.001092479,0.08492932,-0.1487017,-0.02606961,0.02054702,1.013078,21.13066,13.30231,-41.11568,1028.321
0.604648590,-0.1242212,-0.1502604,-0.4548455,-0.02709298,0.02196743,1.012136,21.13066,13.30231,-41.11568,1028.321
0.607116699,0.06051143,0.2025314,-0.4547026,-0.02513947,0.01955297,1.010653,21.13066,13.30231,-41.11568,1028.321
0.609585285,0.06049241,0.3200492,-0.5770361,-0.03014327,0.01893096,1.00597,21.13066,13.30231,-41.11568,1028.321
0.612053394,0.122038,0.1435764,-0.699331,-0.03117213,0.02327204,1.00646,21.13066,13.30231,-41.11568,1028.321
0.614521503,-0.001129463,0.4374851,-0.8215876,-0.02960549,0.02238054,1.009792,21.13066,13.30231,-41.11568,1028.321
0.616990089,0.06043543,0.3785569,-1.066282,-0.03086182,0.01226545,1.012271,21.13066,13.30231,-41.11568,1028.321
0.619458198,0.121981,0.3196472,-1.065947,-0.03734791,0.01356489,1.008099,21.13066,13.30231,-41.11568,1028.321
0.621925831,0.06037812,-0.1507793,-1.065612,-0.03755926,0.01781297,1.002313,21.13066,13.30231,-41.11568,1028.318
0.624394417,0.1219237,-0.09194112,-1.248992,-0.03198027,0.01508576,1.008438,21.13066,13.30231,-41.11568,1028.318
0.626862526,0.1834499,0.2020415,-1.248599,-0.03200307,0.01409609,1.006999,21.13066,13.30231,-41.11568,1028.318
0.629330635,0.1833923,0.4959319,-1.248207,-0.03502714,0.01351366,1.003229,21.13066,13.30231,-41.11568,1028.318
0.631799221,0.06020559,0.08424074,-1.247815,-0.03536637,0.01263092,1.008534,21.13066,13.30231,-41.11568,1028.318
0.634263515,0.1217512,0.2605866,-1.308661,-0.04172363,0.007678773,1.005828,21.13066,13.30231,-41.11568,1028.318
0.636731148,0.1832775,-0.09223986,-1.430726,-0.03543817,0.008197535,1.003261,21.13066,13.30231,-41.11568,1028.318
0.639199734,0.18322,-0.03342013,-1.613991,-0.0387766,0.003337,1.003846,21.13066,13.30231,-41.11568,1028.318
0.641667843,0.1215978,0.0841719,-1.42977,-0.03874467,-0.0005411226,1.002899,21.13066,13.30231,-41.11568,1028.318
0.644135952,0.05999509,-0.03343607,-1.42932,-0.0322654,-0.004769297,1.005158,21.13066,13.30231,-41.11568,1028.318
0.646604538,0.1215408,-0.03342557,-1.428871,-0.03321858,-0.001353437,1.008056,21.13066,13.30231,-41.11568,1028.318
0.649072647,0.2446317,0.3781202,-1.428423,-0.03657774,-0.01158869,1.004814,20.37472,13.65607,-41.11723,1028.318
0.651540756,0.1214257,0.2016292,-1.305498,-0.03212062,-0.01295995,1.006151,20.37472,13.65607,-41.11723,1028.318
0.654009342,0.2445167,0.08398432,-1.305087,-0.03066795,-0.01879981,1.002288,20.37472,13.65607,-41.11723,1028.318
0.656477451,0.3060044,0.2603302,-1.365916,-0.0364366,-0.01783223,1.006761,20.37472,13.65607,-41.11723,1028.318
0.658945084,0.1212147,0.3778299,-1.487963,-0.03597745,-0.02174476,1.003397,20.37472,13.65607,-41.11723,1028.318
0.661414146,0.05961202,0.02496667,-1.365019,-0.03844413,-0.02276378,1.00202,20.37472,13.65607,-41.11723,1028.319
0.663881779,0.1827224,0.1425404,-1.242114,-0.03301629,-0.02705204,1.001419,20.37472,13.65607,-41.11723,1028.319
0.666349888,0.1211004,0.3188679,-1.3642,-0.03453026,-0.02466395,1.000966,20.37472,13.65607,-41.11723,1028.319
0.668818474,0.1210624,0.3187677,-1.180057,-0.03642747,-0.02270002,1.004375,20.37472,13.65607,-41.11723,1028.319
0.671286583,0.2441535,0.201086,-1.118448,-0.031146,-0.02123555,1.001348,20.37472,13.65607,-41.11723,1028.319
0.673754692,0.1825122,0.08344132,-1.118097,-0.03259636,-0.02319222,1.000911,20.37472,13.65607,-41.11723,1028.319
0.676223278,0.1208903,0.3773689,-1.178984,-0.03587008,-0.02313662,1.006768,20.37472,13.65607,-41.11723,1028.319
0.678691387,-0.002276734,0.08329656,-0.9948989,-0.03780238,-0.02217042,1.008257,20.37472,13.65607,-41.11723,1028.319
0.681159019,0.1208531,-0.1518926,-0.9945863,-0.03356526,-0.02124878,1.002371,20.37472,13.65607,-41.11723,1028.319
0.683630466,0.1208151,0.2008996,-0.8105595,-0.03891559,-0.0188593,1.004903,20.37472,13.65607,-41.11723,1028.319
0.686095714,0.0592126,-0.03432654,-0.932781,-0.03705579,-0.01402443,1.003874,20.37472,13.65607,-41.11723,1028.319
0.688563824,-0.002370536,-0.210688,-0.8712499,-0.03604131,-0.01398852,1.005292,20.37472,13.65607,-41.11723,1028.319
0.691032410,0.05919474,-0.03424956,-0.7484999,-0.03754481,-0.01061881,1.005797,20.37472,13.65607,-41.11723,1028.319
0.693500519,0.05917615,0.3772965,-0.6257885,-0.04197342,-0.01459004,1.002557,20.37472,13.65607,-41.11723,1028.319
0.695968628,-0.06397152,0.2595965,-0.7480682,-0.04142332,-0.0111324,1.00686,20.37472,13.65607,-41.11723,1028.319
0.698437214,-0.002386883,0.02435188,-0.8703095,-0.03757308,-0.008687809,1.00579,20.01836,12.92539,-41.10165,1028.319
0.700905323,-0.002386138,-0.3871911,-0.8087979,-0.03915227,-0.004392887,1.003888,20.01836,12.92539,-41.10165,1028.314
0.703372955,-0.06394993,-0.03432488,-0.6860675,-0.0414516,-0.009201394,1.006853,20.01836,12.92539,-41.10165,1028.314
0.705842018,-0.002365306,0.02447666,-0.7470902,-0.03861767,-0.005819155,1.004842,20.01836,12.92539,-41.10165,1028.314
0.708309650,0.05919997,-0.03432178,-0.8693317,-0.03768253,-0.002910912,1.004807,20.01836,12.92539,-41.10165,1028.314
0.710777759,0.05918138,0.02447976,-0.9302967,-0.03860718,-0.004837539,1.0058,20.01836,12.92539,-41.10165,1028.314
0.713246345,0.1207273,0.4360074,-0.9300044,-0.03618975,-0.003850745,1.005254,20.01836,12.92539,-41.10165,1028.314
0.715714455,-0.06400421,0.3182889,-1.052188,-0.03559177,-0.006210292,1.008136,20.01836,12.92539,-41.10165,1028.314
0.718182564,-0.1255487,0.02423511,-0.9906198,-0.0326696,-0.007156692,1.007103,20.01836,12.92539,-41.10165,1028.314
0.720651150,-0.002380133,0.2005998,-0.9290705,-0.03715841,-0.005318796,1.004803,20.01836,12.92539,-41.10165,1028.314
0.723119259,0.1207497,0.2593275,-0.9287786,-0.03130381,-0.002818499,1.005607,20.01836,12.92539,-41.10165,1028.314
0.725587368,0.05914721,-0.03470774,-0.989725,-0.03268556,-0.00521763,1.007577,20.01836,12.92539,-41.10165,1028.314
0.728055954,-0.06400044,-0.03469683,-0.9894141,-0.03270287,-0.009127984,1.004706,20.01836,12.92539,-41.10165,1028.314
0.730524540,0.1207133,-0.03468592,-0.9891032,-0.03034588,0.00107942,1.007011,20.01836,12.92539,-41.10165,1028.314
0.732991695,0.1822399,0.3180695,-1.050031,-0.02836592,-0.002292475,1.006012,20.01836,12.92539,-41.10165,1028.314
0.735460281,0.05905356,0.08280656,-1.172177,-0.03110454,-0.01048611,1.009002,20.01836,12.92539,-41.10165,1028.314
0.737928390,0.059035,-0.09359172,-1.294285,-0.02949461,-0.003865264,0.9993101,20.01836,12.92539,-41.10165,1028.314
0.740396500,-0.002548084,0.02401918,-1.293878,-0.03091877,-0.003367895,1.001269,20.01836,12.92539,-41.10165,1028.314
0.742865086,0.1821464,0.1415932,-1.293472,-0.02698552,-0.005742755,1.000698,20.01836,12.92539,-41.10165,1028.314
0.745333195,0.1205246,0.1415487,-1.231827,-0.02786618,-0.008127965,1.003136,20.01836,12.92539,-41.10165,1028.314
0.747801304,-0.0642069,0.08271346,-1.170202,-0.03218947,-0.009105999,1.005655,20.38645,13.30083,-40.71997,1028.314
0.750269890,0.05894235,-0.03489405,-1.108597,-0.02859092,-0.003901871,0.9964001,20.38645,13.30083,-40.71997,1028.314
0.752737522,-0.06420524,0.02390768,-1.475677,-0.02550005,-0.002788357,1.003054,20.38645,13.30083,-40.71997,1028.314
0.755205631,0.058944,0.08269093,-1.413975,-0.0254246,-0.0003020857,1.007373,20.38645,13.30083,-40.71997,1028.314
0.757674217,0.05892548,-0.1524981,-1.413531,-0.02823781,0.001690391,1.01321,20.38645,13.30083,-40.71997,1028.314
0.760142326,0.1820361,0.2590851,-1.351849,-0.03288484,0.002449984,1.004182,20.38645,13.30083,-40.71997,1028.314
0.762610435,0.05884978,0.3177945,-1.228948,-0.02744626,-0.004268143,1.002628,20.38645,13.30083,-40.71997,1028.314
0.767547131,-0.00271304,0.02377035,-1.228118,-0.02786324,0.0001593754,1.007914,20.38645,13.30083,-40.71997,1028.314
0.767547131,-0.00271304,0.02377035,-1.228118,-0.02786324,0.0001593754,1.007914,20.38645,13.30083,-40.71997,1028.314
0.772485733,0.305092,0.2000723,-1.349765,-0.02244111,0.002203283,1.010655,20.38645,13.30083,-40.71997,1028.314
0.774951935,0.1818671,0.2000094,-1.349341,-0.02395144,0.002644256,1.009248,20.38645,13.30083,-40.71997,1028.314
0.777419567,0.18181,0.1411558,-1.410155,-0.02656402,0.0005549919,1.001624,20.38645,13.30083,-40.71997,1028.314
0.779888153,0.1201883,0.02352998,-1.47095,-0.02546677,-0.0008170661,1.005451,20.38645,13.30083,-40.71997,1028.314
0.782356262,0.058586,-0.2704312,-1.286774,-0.02115944,0.002100033,1.003405,20.38645,13.30083,-40.71997,1028.317
0.784824371,0.0585676,-0.1527647,-1.28637,-0.02442973,0.003620002,1.010219,20.38645,13.30083,-40.71997,1028.317
0.787292957,0.1201137,0.1412371,-1.530918,-0.02511048,0.007387514,1.004928,20.38645,13.30083,-40.71997,1028.317
0.789761066,0.05851147,0.1411927,-1.469199,-0.01929281,0.009863637,1.004289,20.38645,13.30083,-40.71997,1028.317
0.792229176,0.05849308,0.08235756,-1.346261,-0.02004464,0.001226841,1.008193,20.38645,13.30083,-40.71997,1028.317
0.794697761,0.0584747,0.02354093,-1.345838,-0.02307054,0.001617978,1.004899,20.38645,13.30083,-40.71997,1028.317
0.797165871,0.1200209,0.3174873,-1.284177,-0.02336076,0.004178949,1.014039,20.37472,13.65607,-41.11723,1028.317
0.799633503,0.1815477,0.08222456,-1.345012,-0.01857513,0.006120303,1.011023,20.37472,13.65607,-41.11723,1028.317
0.802102566,0.05836159,0.02340795,-1.283351,-0.01549451,0.002840715,1.014808,20.37472,13.65607,-41.11723,1028.317
0.804570198,0.1199078,0.2585636,-1.160472,-0.01662503,0.002241482,1.008583,20.37472,13.65607,-41.11723,1028.317
0.807038307,-0.003258944,0.1996916,-1.160107,-0.01759735,0.002720553,1.009087,20.37472,13.65607,-41.11723,1028.317
0.809506893,-0.003257915,0.02325663,-1.220981,-0.01422015,0.006631703,1.009467,20.37472,13.65607,-41.11723,1028.317
0.811975002,0.1198722,0.2584124,-1.159359,-0.01592308,-0.002974279,1.01388,20.37472,13.65607,-41.11723,1028.317
0.814443111,0.2429636,0.08195891,-1.220233,-0.0159917,-0.002531813,1.011474,20.37472,13.65607,-41.11723,1028.317
0.816911697,0.05819367,0.3170962,-1.097374,-0.01457303,-0.0001085084,1.010947,20.37472,13.65607,-41.11723,1028.317
0.819379806,0.05817538,0.02304278,-1.097029,-0.01746328,-0.003040228,1.011032,20.37472,13.65607,-41.11723,1028.317
0.821847439,0.1812862,0.1406171,-0.974208,-0.0199352,-0.004550058,1.009176,20.37472,13.65607,-41.11723,1028.314
0.824316502,0.2427938,0.08178212,-1.096378,-0.01515298,-0.004073074,1.005203,20.37472,13.65607,-41.11723,1028.314
0.826784134,0.181153,0.434501,-0.9123193,-0.009656752,-0.005392307,1.008919,20.37472,13.65607,-41.11723,1028.314
0.829252243,0.1195315,0.316783,-0.8507947,-0.01509484,-0.005497154,1.006651,20.37472,13.65607,-41.11723,1028.314
0.831720829,0.05792941,0.0815204,-0.7892892,-0.01548696,-0.004465004,1.010988,20.37472,13.65607,-41.11723,1028.314
0.834185123,-0.003653318,0.1402855,-0.8502794,-0.01168389,-0.006437687,1.005606,20.37472,13.65607,-41.11723,1028.314
0.836653709,0.1194769,0.08145071,-0.727536,-0.01219388,-0.004995301,1.005613,20.37472,13.65607,-41.11723,1028.314
0.839121819,-0.003689706,0.3753789,-0.6660693,-0.01164172,-0.005922709,1.007528,20.37472,13.65607,-41.11723,1028.314
0.841589451,-0.06525308,0.1400979,-0.66586,-0.009955632,-0.00478651,1.016623,20.37472,13.65607,-41.11723,1028.314
0.844058037,-0.06523257,0.2576354,-0.6044127,-0.006175352,-0.007748868,1.009803,20.37472,13.65607,-41.11723,1028.314
0.846526146,-0.003647551,0.3163453,-0.3592703,-0.01074351,-0.003038634,1.00605,20.76009,13.30546,-40.72247,1028.314
0.848994255,-0.003646404,0.3162459,-0.1754431,-0.008705646,-0.004423128,1.00841,20.76009,13.30546,-40.72247,1028.314
0.851462841,-0.06520979,0.3749373,-0.1141499,-0.01157286,-0.009776657,1.008023,20.76009,13.30546,-40.72247,1028.314
0.853930950,-0.2498829,0.08086572,0.0696004,-0.01107019,-0.007324805,1.009925,20.76009,13.30546,-40.72247,1028.314
0.856400013,-0.2498044,0.08084031,0.06957854,-0.008936133,-0.003111847,1.00023,20.76009,13.30546,-40.72247,1028.314
0.858867645,-0.1265969,0.4335595,0.1307948,-0.01021939,-0.005446518,1.006047,20.76009,13.30546,-40.72247,1028.314
0.861335754,-0.003428012,0.257051,0.3144681,-0.006748714,-0.005373208,1.007883,20.76009,13.30546,-40.72247,1028.31
0.863803387,-0.003426939,-0.09577431,0.3143693,-0.004795196,-0.00778766,1.0064,20.76009,13.30546,-40.72247,1028.31
0.866272449,-0.0649904,0.5509541,0.6816993,-0.006198384,-0.005327053,1.010275,20.76009,13.30546,-40.72247,1028.31
0.868740082,-0.06496999,0.4331995,0.7427232,-0.01167158,-0.006429629,1.006087,20.76009,13.30546,-40.72247,1028.31
0.871208191,-0.003385037,0.08031886,0.8649662,-0.009679547,-0.006381983,1.00748,20.76009,13.30546,-40.72247,1028.31
0.873676777,-0.1265131,0.2566659,0.9871706,-0.007800128,-0.005433289,1.005023,20.76009,13.30546,-40.72247,1028.31
0.876144886,-0.1264733,0.315376,1.109337,-0.009764133,-0.004000455,1.005548,20.76009,13.30546,-40.72247,1028.31
0.878612995,-0.06486905,0.1976954,1.292703,-0.009292906,-0.004493451,1.004575,20.76009,13.30546,-40.72247,1028.31
0.881081581,-0.1879778,0.2564241,1.414773,-0.004872952,-0.002477398,1.00638,20.76009,13.30546,-40.72247,1028.31
0.883549690,-0.1879187,0.2563435,1.536805,-0.006729335,-0.005847905,1.008366,20.76009,13.30546,-40.72247,1028.31
0.886017323,-0.1878597,0.256263,1.59756,-0.006815746,-0.002492817,1.006911,20.76009,13.30546,-40.72247,1028.31
0.888486385,-0.3109297,0.1973917,1.658296,-0.004939983,0.0004029945,1.005408,20.76009,13.30546,-40.72247,1028.31
0.890954018,-0.3108321,0.1973297,1.902728,-0.004897811,0.000917973,1.007329,20.76009,13.30546,-40.72247,1028.31
0.893422127,-0.2491699,0.37364,2.085844,-0.007909577,0.0003436059,1.004039,20.76009,13.30546,-40.72247,1028.31
0.895890713,-0.2490916,0.3147319,2.207665,-0.01046291,0.006091159,1.003118,20.76009,13.30546,-40.72247,1028.31
0.898358822,-0.3721424,0.4322145,2.145734,-0.01026753,0.003782148,1.009378,20.76873,12.94244,-40.71592,1028.31
0.900826931,-0.2488964,0.373288,2.206298,-0.01125349,-0.001596248,1.006057,20.76873,12.94244,-40.71592,1028.311
0.903295517,-0.1872537,0.2555892,2.328081,-0.007382281,0.002811576,1.006903,20.76873,12.94244,-40.71592,1028.311
0.905766010,-0.310324,0.3142996,2.388587,-0.007524058,-0.004765224,1.016081,20.76873,12.94244,-40.71592,1028.311
0.908231258,-0.3717909,0.1378286,2.510313,-0.01229284,0.001763212,1.005588,20.76873,12.94244,-40.71592,1028.311
0.910700321,-0.2485451,0.4905299,2.632001,-0.008943442,0.0007823911,1.002139,20.76873,12.94244,-40.71592,1028.311
0.913167953,-0.1869025,0.2552128,2.75365,-0.007336214,-0.002032049,1.00596,20.76873,12.94244,-40.71592,1028.311
0.915636063,-0.3715374,0.01996952,2.691547,-0.01107726,-0.006842054,1.009923,20.76873,12.94244,-40.71592,1028.311
0.918109417,-0.186727,0.3727078,2.874416,-0.007745648,-0.004910253,1.007425,20.76873,12.94244,-40.71592,1028.311
0.920572758,-0.3097975,0.548963,2.995989,-0.008290494,-0.007877087,1.003602,20.76873,12.94244,-40.71592,1028.311
0.923044205,-0.2481356,0.431209,2.995048,-0.00925439,-0.002031354,1.007452,20.76873,12.94244,-40.71592,1028.311
0.925509453,-0.1864931,0.1371197,3.239059,-0.01105811,-0.003905263,1.012317,20.76873,12.94244,-40.71592,1028.311
0.927977562,-0.4326927,0.3134489,3.238042,-0.00558809,-0.00767854,1.013638,20.76873,12.94244,-40.71592,1028.311
0.930445671,-0.3094277,0.7248858,3.359501,-0.005032521,-0.007141575,1.016508,20.76873,12.94244,-40.71592,1028.311
0.932914257,-0.1862014,0.5482858,3.480922,-0.007627545,-0.008731976,1.009844,20.76873,12.94244,-40.71592,1028.311
0.935381889,-0.2477074,0.2541597,3.541066,-0.007291736,-0.0093136,1.003582,20.76873,12.94244,-40.71592,1028.311
0.937849998,-0.3091941,0.3716614,3.417478,-0.01263293,-0.01179191,1.003728,20.76873,12.94244,-40.71592,1028.311
0.940318584,-0.1859679,0.4891262,3.53888,-0.00572692,-0.009231536,1.007392,20.76873,12.94244,-40.71592,1028.31
0.942786694,-0.3090386,0.4301817,3.660245,-0.002460523,-0.005392902,1.003444,20.76873,12.94244,-40.71592,1028.31
0.945254803,-0.370506,0.1948836,3.659095,-0.006746409,-0.01316974,1.003584,20.76873,12.94244,-40.71592,1028.31
0.947723389,-0.2472606,0.3711946,3.84166,-0.006191075,-0.009221291,1.008366,20.38337,13.29304,-41.11069,1028.31
0.950191498,-0.2471829,0.5474503,3.779215,0.001177264,-0.005697597,1.011533,20.38337,13.29304,-41.11069,1028.31
0.952659607,-0.2471052,0.4884875,3.900504,-0.001343658,-0.01065114,1.005843,20.38337,13.29304,-41.11069,1028.31
0.955128193,-0.1854631,0.1943803,3.960516,-0.003328865,-0.007770052,1.006363,20.38337,13.29304,-41.11069,1028.31
0.957596302,-0.06227569,0.4294822,4.081748,0.005135132,-0.008056344,1.011924,20.38337,13.29304,-41.11069,1028.31
0.960063934,-0.3700788,0.4293473,4.080466,0.001984296,-0.006772216,1.004299,20.38337,13.29304,-41.11069,1028.31
0.965000629,-0.3083012,0.3702683,4.261598,0.007879477,-0.006194867,1.005591,20.38337,13.29304,-41.11069,1028.31
0.967468739,-0.2466398,0.134989,4.137783,0.0006517936,-0.009139124,1.008192,20.38337,13.29304,-41.11069,1028.31
0.969937325,-0.2465623,0.3113189,4.258959,0.0004860368,-0.002911704,1.005284,20.38337,13.29304,-41.11069,1028.31
0.972405434,-0.2464848,0.4875934,4.135145,0.0004807953,-0.003402511,1.004805,20.38337,13.29304,-41.11069,1028.31
0.974873543,-0.307972,0.3110679,4.256321,-0.003895158,-0.005877145,1.004444,20.38337,13.29304,-41.11069,1028.31
0.977342129,-0.3694397,0.3109702,4.316223,-3.967434E-05,-0.002941746,1.003854,20.38337,13.29304,-41.11069,1028.31
0.979810238,-0.3077591,0.1932909,4.253628,-0.004354073,-0.005376089,1.005898,20.38337,13.29304,-41.11069,1028.31
0.982277870,-0.3692269,-0.04193281,4.31353,-0.000869019,-0.009679766,1.005827,20.38337,13.29304,-41.11069,1028.309
0.984746456,-0.3075464,0.1344526,4.312175,-0.001655791,0.001329008,1.000509,20.38337,13.29304,-41.11069,1028.309
0.987214565,-0.2458853,0.3695734,4.433297,-0.002999015,0.001391972,1.005354,20.38337,13.29304,-41.11069,1028.309
0.989682674,-0.3689371,0.07550354,4.370666,-0.003951946,0.001396348,1.006341,20.38337,13.29304,-41.11069,1028.309
0.992151260,-0.2456921,-0.1008925,4.308055,-0.006776989,-0.003442204,1.007876,20.38337,13.29304,-41.11069,1028.309
0.994623184,-0.2456149,0.193093,4.306701,-0.005954232,-0.003044402,1.002079,20.38337,13.29304,-41.11069,1028.309
0.997087479,-0.2455378,0.2518231,4.305348,-0.005511757,0.005216577,1.004921,20.38645,13.30083,-40.71997,1028.309
0.999556065,-0.1838961,0.1929532,4.242757,-0.003971325,0.001871043,1.005858,20.38645,13.30083,-40.71997,1028.309
1.002024174,-0.3069674,0.1341019,4.302663,-0.006365728,-0.001537558,1.005933,20.38645,13.30083,-40.71997,1028.309
1.004491806,-0.4300001,0.310432,4.301311,-0.009484638,-0.004131559,0.9973608,20.38645,13.30083,-40.71997,1028.309
1.006960869,-0.4298649,0.3103345,4.361198,-0.004449381,-0.0005646963,1.004918,20.38645,13.30083,-40.71997,1028.309
1.009428501,-0.3681653,0.3690277,4.29859,-0.002424065,0.001454241,1.008708,20.38645,13.30083,-40.71997,1028.309
1.011896610,-0.3680497,0.1337488,4.236001,-0.003960604,-0.0005588271,1.004906,20.38645,13.30083,-40.71997,1028.309
1.014365196,-0.3063695,0.310079,4.23467,-0.01093159,-0.004623862,0.9978806,20.38645,13.30083,-40.71997,1028.309
1.016838074,-0.2447087,0.5451447,4.355816,-0.006937267,-0.0001354627,1.003536,20.38645,13.30083,-40.71997,1028.309
1.019301414,-0.2446319,0.1334381,4.29321,-0.00989796,-0.001651157,1.001692,20.38645,13.30083,-40.71997,1028.309
1.021770000,-0.1829905,0.07460543,4.108147,-0.007238438,0.006003327,0.9953377,20.38645,13.30083,-40.71997,1028.31
1.024238110,-0.1213684,0.1921635,4.106856,-0.007011129,-0.0001838058,1.00065,20.38645,13.30083,-40.71997,1028.31
1.026706695,-0.3675885,0.01573086,4.166804,-0.01274238,-0.006015019,1.002744,20.38645,13.30083,-40.71997,1028.31
1.029174804,-0.1827794,-0.2782279,4.165495,-0.01532398,0.001663539,1.001816,20.38645,13.30083,-40.71997,1028.31
1.031642437,-0.1827219,-0.3369312,4.164186,-0.005071985,0.001778733,1.001074,20.38645,13.30083,-40.71997,1028.31
1.034106731,-0.2442291,0.07470993,4.162878,-0.009864446,-0.003091354,1.002178,20.38645,13.30083,-40.71997,1028.31
1.036575317,-0.2441523,-0.04289506,3.977856,-0.01138184,-0.002167631,1.000769,20.38645,13.30083,-40.71997,1028.31
1.039043426,-0.3672047,-0.1604631,3.85413,-0.00894527,0.00175595,1.002616,20.38645,13.30083,-40.71997,1028.31
1.041512012,-0.1823957,0.07475034,3.791681,-0.01003521,-0.0007662289,0.9968798,20.38645,13.30083,-40.71997,1028.31
1.043980121,-0.3054675,0.1335176,3.79049,-0.01085248,-0.004084708,1.001245,20.38645,13.30083,-40.71997,1028.31
1.046447754,-0.3669361,0.1334757,3.728061,-0.008542662,0.00170542,0.9992379,21.12201,13.66533,-41.12222,1028.31
1.048916340,-0.1205627,-0.2193108,3.72689,-0.01491931,-0.002772039,0.9960492,21.12201,13.66533,-41.12222,1028.31
1.051384449,-0.1820893,-0.3956142,3.664481,-0.01234343,-0.004118431,1.00032,21.12201,13.66533,-41.12222,1028.31
1.053853035,-0.1820321,-0.2191176,3.602092,-0.01230332,0.0007815957,1.00463,21.12201,13.66533,-41.12222,1028.31
1.056321144,-0.305104,-0.2778395,3.60096,-0.01725082,-0.0002909414,1.001873,21.12201,13.66533,-41.12222,1028.31
1.058789253,-0.2434436,-0.4541245,3.53859,-0.01377831,-0.00119119,1.003232,21.12201,13.66533,-41.12222,1028.31
1.061257362,-0.2433672,-0.2776096,3.598717,-0.008320831,-0.001561034,1.005983,21.12201,13.66533,-41.12222,1028.306
1.063725948,-0.1817262,0.07522219,3.536348,-0.01589893,0.00160127,0.9984623,21.12201,13.66533,-41.12222,1028.306
1.066194057,-0.1816691,-0.3951275,3.412761,-0.01976856,-0.0003686287,0.9990495,21.12201,13.66533,-41.12222,1028.306
1.068661690,-0.2431765,-0.4537941,3.289213,-0.01593221,-0.00037002,0.996065,21.12201,13.66533,-41.12222,1028.306
1.071130752,-0.2431001,-0.1596978,3.410655,-0.01783125,0.002567468,0.9999508,21.12201,13.66533,-41.12222,1028.306
1.073598385,-0.1814592,-0.2184384,3.348346,-0.01578655,0.004111709,1.004223,21.12201,13.66533,-41.12222,1028.306
1.076066494,-0.1814022,-0.4535328,3.16358,-0.02076049,0.00399662,1.000981,21.12201,13.66533,-41.12222,1028.306
1.078535080,-0.1813452,-0.3358088,3.162586,-0.02129851,0.003958523,0.9990705,21.12201,13.66533,-41.12222,1028.306
1.081003189,-0.05815917,-0.2181218,3.100354,-0.02074111,0.003521928,1.001464,21.12201,13.66533,-41.12222,1028.306
1.083471298,-0.1197055,-0.8059608,2.976904,-0.02365963,0.002521211,1.001542,21.12201,13.66533,-41.12222,1028.306
1.085939884,-0.1196679,-0.8057076,2.914731,-0.02536463,-0.002699727,1.008343,21.12201,13.66533,-41.12222,1028.306
1.088407993,-0.3043239,-0.3351285,2.791338,-0.02797904,-0.003815431,1.001196,21.12201,13.66533,-41.12222,1028.306
1.090878010,-0.2426637,-0.4526047,2.729223,-0.03150809,0.0009468235,0.9998226,21.12201,13.66533,-41.12222,1028.306
1.093344688,-0.1194584,-0.334881,2.667128,-0.02711617,0.001482396,0.9997091,21.12201,13.66533,-41.12222,1028.306
1.095812320,-0.1194209,-0.8051018,2.605052,-0.03107039,0.001894021,0.9983639,20.75701,13.29768,-41.11319,1028.306
1.098280430,-0.1809479,-0.6284766,2.604234,-0.03354961,0.004278432,0.9984169,20.75701,13.29768,-41.11319,1028.306
1.100749016,-0.1193265,-0.5694885,2.725892,-0.03539734,0.002863104,1.001838,20.75701,13.29768,-41.11319,1028.307
1.103217125,-0.05772446,-0.5105187,2.541321,-0.03585443,0.002390598,1.002814,20.75701,13.29768,-41.11319,1028.307
1.105685234,-0.05770633,-0.5691491,2.418046,-0.03389408,0.002904881,1.003243,20.75701,13.29768,-41.11319,1028.307
1.108153820,-0.1192528,-0.6865519,2.294811,-0.03683355,-5.906634E-05,1.001405,20.75701,13.29768,-41.11319,1028.307
1.110621929,-0.1192153,-0.8627083,2.171613,-0.0350246,0.00230565,0.9970188,20.75701,13.29768,-41.11319,1028.307
1.113089561,-0.3038715,-0.9212281,2.354645,-0.03652103,0.005192606,0.9975261,20.75701,13.29768,-41.11319,1028.307
1.115558624,-0.1806469,-0.8033572,2.170191,-0.03822261,0.001436038,1.005284,20.75701,13.29768,-41.11319,1028.307
1.118026256,-0.2421547,-0.7443141,2.047033,-0.03778856,0.004330354,1.00478,20.75701,13.29768,-41.11319,1028.307
1.120494365,-0.3652077,-0.6852895,1.862676,-0.03351451,0.005276165,1.000337,20.75701,13.29768,-41.11319,1028.307
1.122962951,-0.1803994,-0.8026557,1.678376,-0.03609405,0.008569675,0.9970202,20.75701,13.29768,-41.11319,1028.307
1.125431061,-0.1187782,-0.6848221,1.677849,-0.03939395,0.006171238,1.000482,20.75701,13.29768,-41.11319,1028.307
1.127899170,-0.1803054,-0.7433977,1.616084,-0.04164063,0.00285932,1.006327,20.75701,13.29768,-41.11319,1028.307
1.130367756,-0.05711964,-0.7431641,1.554338,-0.0411694,0.002366326,1.005355,20.75701,13.29768,-41.11319,1028.307
1.132835865,-0.0571017,-0.5077676,1.553849,-0.04170401,0.003792593,1.0044,20.75701,13.29768,-41.11319,1028.307
1.135303974,-0.1802129,-0.6839804,1.492123,-0.04266766,0.006226841,1.006339,20.75701,13.29768,-41.11319,1028.307
1.137772560,0.004537389,-0.3898118,1.30794,-0.04362059,0.006231217,1.007326,20.75701,13.29768,-41.11319,1028.307
1.140240192,-0.05702858,-0.3896893,1.123815,-0.04477257,0.01049172,1.003007,20.75701,13.29768,-41.11319,1028.308
1.142708301,-0.05701067,-0.6247299,1.123462,-0.0408587,0.008591556,1.001953,20.75701,13.29768,-41.11319,1028.308
1.145181656,-0.05699275,-0.7421151,1.061871,-0.04605241,0.009621412,1.009779,20.76565,12.93465,-41.10664,1028.308
1.147644996,-0.1185394,-0.4479282,0.8778226,-0.04861392,0.006590817,1.003601,20.76565,12.93465,-41.10664,1028.308
1.150113106,-0.1185022,-0.6829505,0.7550706,-0.04412328,0.003779364,1.005424,20.76565,12.93465,-41.10664,1028.308
1.152581692,0.004664153,-0.5063636,0.6935953,-0.04690066,-0.003464889,1.007448,20.76565,12.93465,-41.10664,1028.308
1.155049801,0.06622723,-0.4474138,0.6933774,-0.04885807,0.00430817,1.011797,20.76565,12.93465,-41.10664,1028.308
1.159986496,-0.0569241,-0.6235235,0.3868088,-0.04743185,-0.0005742498,1.00745,20.76565,12.93465,-41.10664,1028.308
1.162454605,0.06622285,-0.5645369,0.202973,-0.05224734,-0.003022525,1.009026,20.76565,12.93465,-41.10664,1028.308
1.164922237,0.00463751,-0.6231503,0.3253855,-0.05377363,-0.0006424896,1.008092,20.76565,12.93465,-41.10664,1028.308
1.167390823,-0.05692849,-0.6229545,0.1415689,-0.05129806,-0.001079783,1.008994,20.76565,12.93465,-41.10664,1028.308
1.169858932,-0.0569106,-0.6815495,0.01904813,-0.05580077,-0.001687869,1.004779,20.76565,12.93465,-41.10664,1028.308
1.172327041,-0.05689272,-0.5049632,-0.1034341,-0.05754089,-0.007906538,1.009661,20.76565,12.93465,-41.10664,1028.308
1.174795627,0.06625421,-0.3284323,-0.2258779,-0.05663402,-0.00306729,1.009618,20.76565,12.93465,-41.10664,1028.308
1.177263737,0.1893625,-0.2695383,-0.2258069,-0.05794373,-0.004444521,1.01495,20.76565,12.93465,-41.10664,1028.308
1.179731846,0.06617391,-0.5634074,-0.3482122,-0.06145293,-0.006979931,1.010237,20.76565,12.93465,-41.10664,1028.308
1.182203769,-0.05697595,-0.4456489,-0.5318172,-0.06115222,-0.008559287,1.002056,20.76565,12.93465,-41.10664,1028.305
1.184668541,0.1277356,-0.2691366,-0.5928883,-0.06057068,-0.002156794,1.009233,20.76565,12.93465,-41.10664,1028.305
1.187136173,0.18926,-0.2690521,-0.8376545,-0.0639146,-0.004096655,1.01125,20.76565,12.93465,-41.10664,1028.305
1.189604759,0.127636,-0.3277583,-0.8373914,-0.06099742,-0.008945351,1.007828,20.76565,12.93465,-41.10664,1028.305
1.192072868,0.06603134,-0.3864461,-0.5921758,-0.06238807,-0.009888174,1.010273,20.76565,12.93465,-41.10664,1028.305
1.194540977,0.06601059,-0.1511617,-0.7757041,-0.06335355,-0.00648037,1.012689,21.13571,12.9302,-41.56498,1028.305
1.197009563,0.1275544,-0.1511142,-1.020413,-0.0553031,-0.003138311,1.004291,21.13571,12.9302,-41.56498,1028.305
1.199477672,0.06594978,-0.2098574,-0.9588543,-0.05750601,-0.003497321,1.013492,21.13571,12.9302,-41.56498,1028.305
1.201945782,0.06592907,-0.2097915,-1.081029,-0.06488144,-0.006538264,1.010322,21.13571,12.9302,-41.56498,1028.305
1.204415798,0.06590836,0.2606004,-1.264404,-0.06329016,-0.007413642,1.014616,21.13571,12.9302,-41.56498,1028.305
1.206882477,0.1890167,-0.09222597,-1.325245,-0.05978597,-0.008780528,1.016939,21.13571,12.9302,-41.56498,1028.305
1.209350109,0.1273928,-0.2097785,-1.324829,-0.06039261,-0.008376159,1.012622,21.13571,12.9302,-41.56498,1028.305
1.211819172,0.004223704,-0.1509219,-1.569365,-0.06481464,-0.006007167,1.013206,21.13571,12.9302,-41.56498,1028.305
1.214286804,0.1273515,0.02549782,-1.63011,-0.06140551,-0.00597414,1.012638,21.13571,12.9302,-41.56498,1028.305
1.216755390,0.0657469,-0.1508825,-1.690836,-0.05846395,-0.007395236,1.012088,21.13571,12.9302,-41.56498,1028.305
1.219223499,0.1272908,-0.03325355,-1.629067,-0.06256042,-0.01000097,1.003541,21.13571,12.9302,-41.56498,1028.305
1.221691608,0.1272508,0.1431292,-1.628555,-0.06302115,-0.008526364,1.005471,21.13571,12.9302,-41.56498,1028.306
1.224159717,0.1887754,0.2606657,-1.811758,-0.05949464,-0.002080599,1.013055,21.13571,12.9302,-41.56498,1028.306
1.226628303,0.2502806,0.3781653,-1.994903,-0.06170644,-0.003246836,1.002529,21.13571,12.9302,-41.56498,1028.306
1.229096412,0.250202,0.2016743,-2.116752,-0.06506975,-0.004712004,1.004064,21.13571,12.9302,-41.56498,1028.306
1.231564998,0.1885588,0.3191924,-2.177325,-0.05959995,-0.005073793,1.007295,21.13571,12.9302,-41.56498,1028.306
1.234028816,0.3116287,0.3190922,-2.237879,-0.05951878,-0.008919688,1.008271,21.13571,12.9302,-41.56498,1028.306
1.236496925,0.0652726,0.2602012,-2.359653,-0.06446102,-0.009501413,1.005993,21.13571,12.9302,-41.56498,1028.306
1.238965511,0.2499457,0.3189102,-2.542626,-0.06105532,-0.01093275,1.004469,21.13571,12.9302,-41.56498,1028.306
1.241433620,0.2498672,0.08364693,-2.603065,-0.06106628,-0.005091399,1.007333,21.13571,12.9302,-41.56498,1028.306
1.243901729,0.2497887,0.08362065,-2.479771,-0.06268717,-0.008134427,0.9996869,21.82988,12.57697,-41.4979,1028.306
1.246370315,0.3112748,0.6127112,-2.601468,-0.06458779,-0.007634867,1.002139,21.82988,12.57697,-41.4979,1028.306
1.248838425,0.311177,0.2597741,-2.661889,-0.06013639,-0.002673965,1.006818,21.82988,12.57697,-41.4979,1028.306
1.251306057,0.2495147,0.2009018,-2.783529,-0.05813887,-0.005546993,1.006779,21.82988,12.57697,-41.4979,1028.306
1.253775120,0.3110008,0.1420479,-2.721416,-0.05866458,-0.005577035,1.005349,21.82988,12.57697,-41.4979,1028.306
1.256242752,0.3724677,0.4359571,-2.843038,-0.05569681,-0.004544089,1.007194,21.82988,12.57697,-41.4979,1028.306
1.258710861,0.2492216,0.7297739,-3.087097,-0.05928901,-0.002260046,1.001983,21.82988,12.57697,-41.4979,1028.306
1.261179447,0.1260142,0.2592186,-3.147365,-0.05669215,-0.001643207,1.00817,21.82988,12.57697,-41.4979,1028.302
1.263647556,0.2491037,0.3179279,-3.085139,-0.05514283,-0.006445054,1.008632,21.82988,12.57697,-41.4979,1028.302
1.266115665,0.31059,0.4354095,-3.084169,-0.05866617,-0.008014962,1.003915,21.82988,12.57697,-41.4979,1028.302
1.268584251,0.3104924,0.08252818,-3.144439,-0.062684,-0.003258575,1.002554,21.82988,12.57697,-41.4979,1028.302
1.271052360,0.3103949,0.3176653,-3.388403,-0.05681709,-0.0007502213,1.003839,21.82988,12.57697,-41.4979,1028.302
1.273519993,0.2487328,0.1411932,-3.264863,-0.05533114,-0.004618792,1.002373,21.82988,12.57697,-41.4979,1028.302
1.275989055,0.3102192,0.02356733,-3.202598,-0.05534893,-0.001706172,1.003324,21.82988,12.57697,-41.4979,1028.302
1.278456688,0.2485572,0.1999322,-3.385307,-0.05476692,-0.002126651,1.00668,21.82988,12.57697,-41.4979,1028.302
1.280924797,0.1869146,0.3174509,-3.50672,-0.05330034,-0.005520532,1.004732,21.82988,12.57697,-41.4979,1028.302
1.283393383,0.2484204,0.3173512,-3.505618,-0.05238665,0.002247452,1.006602,21.82988,12.57697,-41.4979,1028.302
1.285861492,0.2483424,0.1408792,-3.443279,-0.05320186,-0.005456075,1.008579,21.82988,12.57697,-41.4979,1028.302
1.288329601,0.1866998,0.4347887,-3.442197,-0.04988939,-0.006461067,1.003687,21.82988,12.57697,-41.4979,1028.302
1.290798187,0.4328993,0.4346521,-3.686068,-0.04929895,-0.001514886,1.010388,21.82988,12.57697,-41.4979,1028.302
1.293266296,0.2480697,0.2581433,-3.623672,-0.05192249,0.002237206,1.005628,21.1393,12.93928,-41.10914,1028.302
1.295733929,0.3095563,0.3756437,-3.561295,-0.04758117,-0.003108863,1.000246,21.1393,12.93928,-41.10914,1028.302
1.298202991,0.3710236,0.4931073,-3.682652,-0.04786407,-0.004442127,1.007477,21.1393,12.93928,-41.10914,1028.302
1.300670624,0.3093425,0.3165801,-3.620258,-0.04796279,-0.001095098,1.005541,21.1393,12.93928,-41.10914,1028.303
1.303138733,0.3092453,0.2576898,-3.680358,-0.05048738,-0.00410152,1.000805,21.1393,12.93928,-41.10914,1028.303
1.305611610,0.4938418,0.1988181,-3.74044,-0.04802228,-0.005520428,1.000748,21.1393,12.93928,-41.10914,1028.303
1.308075428,0.4321221,0.1987557,-3.861742,-0.04632754,-0.002429061,1.011279,21.1393,12.93928,-41.10914,1028.303
1.310543537,0.3088572,0.72781,-3.738052,-0.04496676,-0.001993157,1.007393,21.1393,12.93928,-41.10914,1028.303
1.313012123,0.2471957,0.4336276,-3.736877,-0.04349153,-0.00343186,1.006881,21.1393,12.93928,-41.10914,1028.303
1.315480232,0.1855535,0.1983283,-3.674465,-0.04188296,-0.0003968906,1.014046,21.1393,12.93928,-41.10914,1028.303
1.317948341,0.3701888,0.3158476,-3.612073,-0.04613445,0.0007949229,1.001637,21.1393,12.93928,-41.10914,1028.303
1.320416927,0.3085079,0.4333299,-3.672176,-0.04133628,-0.0006671548,0.9971908,21.1393,12.93928,-41.10914,1028.303
1.322884559,0.3699756,0.3744029,-3.854737,-0.03865142,-0.0009674728,1.006267,21.1393,12.93928,-41.10914,1028.303
1.325352669,0.554553,0.3154946,-3.73105,-0.03819411,-0.003906453,1.00338,21.1393,12.93928,-41.10914,1028.303
1.327821255,0.4312496,0.3741862,-3.607401,-0.03371076,-0.002823673,1.007112,21.1393,12.93928,-41.10914,1028.303
1.330289364,0.2464205,0.2564872,-3.728744,-0.03707588,-0.003315279,1.009124,21.1393,12.93928,-41.10914,1028.303
1.332757473,0.3079077,0.1388251,-3.727573,-0.03421186,-0.002837598,1.006643,21.1393,12.93928,-41.10914,1028.303
1.335226059,0.3078109,0.491526,-3.665164,-0.03754712,-0.002822282,1.010096,21.1393,12.93928,-41.10914,1028.303
1.337694168,0.4924079,0.3737901,-3.602774,-0.03272432,-0.004268244,1.006612,21.1393,12.93928,-41.10914,1028.303
1.340162277,0.3691241,0.4324634,-3.601642,-0.03043023,4.945882E-05,1.003167,21.1393,12.93928,-41.10914,1028.302
1.342630863,0.245879,0.314746,-3.600511,-0.03141437,-0.006302498,0.9993687,20.77122,12.56384,-41.49083,1028.302
1.345098495,0.2458018,0.3734379,-3.415665,-0.02787849,-0.008136021,1.002655,20.77122,12.56384,-41.49083,1028.302
1.350035190,0.3687764,0.3143941,-3.535938,-0.02756436,-0.0004464202,1.00021,20.77122,12.56384,-41.49083,1028.302
1.350035190,0.3687764,0.3143941,-3.535938,-0.02756436,-0.0004464202,1.00021,20.77122,12.56384,-41.49083,1028.302
1.354971409,0.2453964,0.3730057,-3.350022,-0.02746771,0.0005915947,1.004534,20.77122,12.56384,-41.49083,1028.302
1.357439995,0.3068838,0.3728886,-3.410207,-0.02651978,-0.003315074,1.001157,20.77122,12.56384,-41.49083,1028.302
1.359908104,0.3683519,0.3727714,-3.470374,-0.02403896,-0.003261557,1.002538,20.77122,12.56384,-41.49083,1028.302
1.362376213,0.2451071,0.4902359,-3.224331,-0.02799317,-0.002849931,1.001193,20.77122,12.56384,-41.49083,1028.302
1.364844799,0.2450301,0.196128,-3.223318,-0.02354836,-0.004229248,1.002048,20.77122,12.56384,-41.49083,1028.302
1.367312908,0.3680822,0.1960664,-3.283544,-0.0240921,0.002064819,1.00348,20.77122,12.56384,-41.49083,1028.302
1.369783878,0.3064021,0.3135863,-3.098798,-0.02400934,0.0006568525,1.00589,20.77122,12.56384,-41.49083,1028.302
1.372249126,0.1831767,0.2546971,-2.975348,-0.02121003,-0.003781609,0.9981374,20.77122,12.56384,-41.49083,1028.302
1.374717235,0.05999006,0.4897801,-3.09689,-0.01815427,-0.003665822,1.002872,20.77122,12.56384,-41.49083,1028.302
1.377185345,0.2446648,0.3720447,-3.157155,-0.01692867,-0.004466498,1.011987,20.77122,12.56384,-41.49083,1028.302
1.379653931,0.3061525,0.1955555,-2.911211,-0.01968946,0.0001705214,1.002414,20.77122,12.56384,-41.49083,1028.302
1.382125378,0.3060564,0.4894479,-2.910296,-0.01551388,0.001051874,0.9941239,20.77122,12.56384,-41.49083,1028.304
1.384590626,0.1212666,0.07775881,-2.909382,-0.01657031,-0.0006469656,1.009075,20.77122,12.56384,-41.49083,1028.304
1.387058735,0.182793,0.2541067,-2.908468,-0.01349834,-0.005881727,1.011425,20.77122,12.56384,-41.49083,1028.304
1.389526844,0.2443001,0.1952361,-2.72384,-0.01328954,-0.00118532,1.003219,20.77122,12.56384,-41.49083,1028.304
1.391995430,0.3057879,0.2539655,-2.722984,-0.01172472,-0.001103254,1.007029,20.75701,13.29768,-41.11319,1028.304
1.394463539,0.3056918,0.3714672,-2.66089,-0.01114929,-0.007863957,1.006561,20.75701,13.29768,-41.11319,1028.304
1.396931171,0.1824667,0.1361875,-2.598816,-0.01316071,-0.007436909,1.004686,20.75701,13.29768,-41.11319,1028.304
1.399399757,0.2439739,0.1361447,-2.598,-0.01112102,-0.00979496,1.006568,20.75701,13.29768,-41.11319,1028.304
1.401867866,0.1823327,0.2536835,-2.474707,-0.01155554,-0.005866306,1.010894,20.75701,13.29768,-41.11319,1028.304
1.404335976,0.1207109,0.194813,-2.290215,-0.01214305,-0.002525149,1.00897,20.75701,13.29768,-41.11319,1028.304
1.406804561,0.3053666,0.1359611,-2.289496,-0.005799435,-0.003430465,1.007851,20.75701,13.29768,-41.11319,1028.304
1.409272671,0.2437061,0.3122906,-2.288777,-0.009148357,-0.009272618,1.007479,20.75701,13.29768,-41.11319,1028.304
1.411740780,0.2436296,0.194611,-2.165581,-0.009727202,-0.003976284,1.00699,20.75701,13.29768,-41.11319,1028.304
1.414209366,0.120424,0.1357591,-1.981187,-0.008236248,-0.003942564,1.007915,20.75701,13.29768,-41.11319,1028.304
1.416677475,0.1203861,0.3708795,-1.919326,-0.007416908,-0.005009126,1.001162,20.75701,13.29768,-41.11319,1028.304
1.419145107,0.1203483,0.01801842,-1.735009,-0.008350695,-0.002067959,1.004542,20.75701,13.29768,-41.11319,1028.304
1.421613693,0.1818751,-0.09956874,-1.611988,-0.007782578,-0.004934423,1.005983,20.75701,13.29768,-41.11319,1028.301
1.424081802,0.1818179,0.2532071,-1.550243,-0.006272009,-0.008786881,1.005479,20.75701,13.29768,-41.11319,1028.301
1.426549911,0.1817608,0.4882906,-1.488518,-0.006724091,-0.005357094,1.008845,20.75701,13.29768,-41.11319,1028.301
1.429018497,0.0585746,0.3117649,-1.243098,-0.01065345,-0.008340839,1.00655,20.75701,13.29768,-41.11319,1028.301
1.431486606,-0.1261374,0.1352947,-1.181469,-0.006649991,-0.008720238,1.009819,20.75701,13.29768,-41.11319,1028.301
1.433950424,0.05859582,-0.1587016,-1.11986,-0.005273728,-0.003400424,1.009281,20.75701,13.29768,-41.11319,1028.301
1.436419010,0.05857742,0.07651127,-0.8133174,-0.005860986,-0.003470751,1.005447,20.75701,13.29768,-41.11319,1028.301
1.438887119,0.1816881,0.370441,-0.6905856,-0.005760675,-0.004379855,1.008816,20.75701,13.29768,-41.11319,1028.301
1.441355228,0.05850193,0.1939524,-0.6291305,-0.003337761,-0.006313741,1.006838,21.5043,13.30694,-41.11818,1028.301
1.443823814,-0.003080979,0.07630993,-0.4452185,-0.005968127,-0.005490385,1.000165,21.5043,13.30694,-41.11818,1028.301
1.446291923,-0.1262091,-0.1000863,-0.3226024,-0.007189836,-0.007784778,1.008385,21.5043,13.30694,-41.11818,1028.301
1.448760033,0.05852418,0.1351081,-0.2612629,-0.00479885,-0.005840542,1.007354,21.5043,13.30694,-41.11818,1028.301
1.451228618,-0.003058746,0.2526472,-0.1999427,-0.006766267,-0.005872075,1.006923,21.5043,13.30694,-41.11818,1028.301
1.453696728,-0.1261869,0.1937771,-0.07740363,-0.007835474,-0.003019536,1.005014,21.5043,13.30694,-41.11818,1028.301
1.456164360,-0.003018156,-0.2178191,0.1675732,-0.00580968,-0.00782357,1.004982,21.5043,13.30694,-41.11818,1028.301
1.458633423,-0.003017202,0.01741236,0.3512349,-0.005254349,-0.003875121,1.009764,21.5043,13.30694,-41.11818,1028.301
1.461101055,-0.06458078,0.2525699,0.4123627,-0.006435938,-0.003533021,1.002093,21.5043,13.30694,-41.11818,1028.303
1.463569164,-0.1261251,-0.04146321,0.5347094,-0.009213563,-0.007365784,1.006029,21.5043,13.30694,-41.11818,1028.303
1.466037750,-0.06452087,-0.2178224,0.7182558,-0.007766614,-0.006873485,1.005509,21.5043,13.30694,-41.11818,1028.303
1.468505859,-0.002936065,-0.04138176,0.9017445,-0.006474696,-0.002583634,1.001128,21.5043,13.30694,-41.11818,1028.303
1.470973968,-0.1260642,0.252585,0.8402231,-0.009878583,-0.002125852,1.002175,21.5043,13.30694,-41.11818,1028.303
1.473442554,-0.1875892,0.1937149,1.084912,-0.007856444,-0.004982768,1.003097,21.5043,13.30694,-41.11818,1028.303
1.475910663,-0.0028366,0.01728179,1.268285,-0.01017515,-0.009316584,1.00558,21.5043,13.30694,-41.11818,1028.303
1.478378296,-0.1259648,-0.0415144,1.267887,-0.01238585,-0.001221925,1.00031,21.5043,13.30694,-41.11818,1028.303
1.480847359,-0.1259252,-0.1002921,1.573679,-0.0133545,-0.002689973,0.999859,21.5043,13.30694,-41.11818,1028.303
1.483314991,-0.1874502,-0.2178421,1.634423,-0.01429147,-0.004624659,1.000372,21.5043,13.30694,-41.11818,1028.303
1.485783100,-0.1873913,0.07618011,1.572671,-0.009957686,-0.002665002,0.9988104,21.5043,13.30694,-41.11818,1028.303
1.488251686,-0.1873324,0.01736541,1.81713,-0.01340057,0.002153652,1.000803,21.5043,13.30694,-41.11818,1028.303
1.490719795,-0.1872736,0.01735996,2.061511,-0.01668452,-0.002183847,1.003791,20.38645,13.30083,-40.71997,1028.303
1.493187904,-0.1872147,-0.04143625,2.122102,-0.01779955,0.002100831,1.000914,20.38645,13.30083,-40.71997,1028.303
1.495656490,-0.1255914,-0.04142323,2.060197,-0.01729506,0.003579125,1.002339,20.38645,13.30083,-40.71997,1028.303
1.498124599,-0.1255519,-0.2177825,2.243264,-0.02030158,0.003495567,0.9995283,20.38645,13.30083,-40.71997,1028.303
1.500592232,-0.3717706,-0.4528771,2.426274,-0.01722802,0.0006987322,1.003312,20.38645,13.30083,-40.71997,1028.302
1.503065109,-0.1869602,-0.2763626,2.48675,-0.01380817,-0.00169811,1.001791,20.38645,13.30083,-40.71997,1028.302
1.505528927,-0.3715951,-0.3350665,2.42473,-0.01974783,0.005006087,1.002877,20.38645,13.30083,-40.71997,1028.302
1.507998943,-0.3099139,-0.2173797,2.485207,-0.02019579,-0.0003342126,1.001466,20.38645,13.30083,-40.71997,1028.302
1.510465622,-0.2482519,-0.570056,2.729378,-0.02115054,0.0006437209,1.00293,20.38645,13.30083,-40.71997,1028.302
1.512933731,-0.3097385,-0.3935046,2.728521,-0.019658,0.00311537,1.005288,20.38645,13.30083,-40.71997,1028.302
1.515401840,-0.3096412,-0.04063645,2.85014,-0.01675862,0.001179294,1.002816,20.38645,13.30083,-40.71997,1028.302
1.517873764,-0.3711084,-0.3933682,2.849245,-0.01969128,0.001144079,1.002891,20.38645,13.30083,-40.71997,1028.302
1.520338535,-0.3709918,-0.8047799,2.909588,-0.01620694,0.007074861,1.008553,20.38645,13.30083,-40.71997,1028.302
1.522807121,-0.3708753,-0.5105733,3.03115,-0.02027902,0.007896725,1.002878,20.38645,13.30083,-40.71997,1028.302
1.525275230,-0.3091943,-0.2164591,2.96896,-0.02210188,0.003086025,1.00535,20.38645,13.30083,-40.71997,1028.302
1.527742863,-0.3706616,-0.2751819,3.090503,-0.025017,0.003549678,1.006384,20.38645,13.30083,-40.71997,1028.302
1.530210972,-0.2474161,-0.5102584,3.15077,-0.02688386,-0.0008024443,1.007412,20.38645,13.30083,-40.71997,1028.302
1.532680988,-0.3704675,-0.3925167,3.272256,-0.02463877,7.154606E-05,1.000133,20.38645,13.30083,-40.71997,1028.302
1.535147667,-0.1856575,-0.5687656,3.271229,-0.02691786,0.007460723,1.010747,20.38645,13.30083,-40.71997,1028.302
1.537616253,-0.1240346,-0.2746332,3.331439,-0.02772441,0.001712373,1.01416,20.38645,13.30083,-40.71997,1028.302
1.540084362,-0.2471247,-0.3333377,3.207916,-0.02244111,0.002203283,1.010655,20.74477,13.65161,-41.57557,1028.304
1.545021057,-0.1853662,-0.1567559,3.511995,-0.02744174,0.006457123,1.00884,20.74477,13.65161,-41.57557,1028.304
1.547489166,-0.2468725,-0.5094512,3.388416,-0.02695272,0.003051506,1.006917,20.74477,13.65161,-41.57557,1028.304
1.549956798,-0.3699241,-0.2741281,3.448589,-0.02530856,0.0002612378,1.01218,20.74477,13.65161,-41.57557,1028.304
1.552425861,-0.2466788,-0.509205,3.447506,-0.02823574,-0.002694655,1.010822,20.74477,13.65161,-41.57557,1028.304
1.554893494,-0.3081658,-0.3914636,3.507661,-0.03375524,0.004457879,1.009489,20.74477,13.65161,-41.57557,1028.304
1.557361603,-0.1849399,-0.3913406,3.445321,-0.03122812,-0.003743714,1.008015,20.74477,13.65161,-41.57557,1028.304
1.559830189,-0.2464464,-0.09726384,3.383,-0.0296811,-0.0007490292,1.012776,20.74477,13.65161,-41.57557,1028.304
1.562298298,-0.3079335,0.02034822,3.381938,-0.03357925,0.002623561,1.015267,20.74477,13.65161,-41.57557,1028.304
1.564766407,-0.3078368,-0.09723967,3.380875,-0.02966538,0.0007233955,1.014213,20.74477,13.65161,-41.57557,1028.304
1.567234993,-0.3693045,-0.09720913,3.441051,-0.02824805,-0.002702713,1.010341,20.74477,13.65161,-41.57557,1028.304
1.569703102,-0.2460595,-0.09717859,3.501208,-0.03115768,-0.005159738,1.009944,20.74477,13.65161,-41.57557,1028.304
1.572171211,-0.3691112,-0.2147296,3.500108,-0.02818126,-0.002171617,1.013225,20.74477,13.65161,-41.57557,1028.304
1.574639797,-0.3074307,-0.2146621,3.376533,-0.02967586,-0.0002582204,1.013255,20.74477,13.65161,-41.57557,1028.304
1.577107429,-0.1842051,0.02056834,3.559186,-0.0266691,-0.003586149,1.014155,20.74477,13.65161,-41.57557,1028.304
1.579575539,-0.2457117,0.02056187,3.619306,-0.02823574,-0.002694655,1.010822,20.74477,13.65161,-41.57557,1028.304
1.582044125,-0.3687636,-0.2146076,3.495693,-0.03168887,-0.002269102,1.009946,20.74477,13.65161,-41.57557,1028.301
1.584512234,-0.3070832,-0.2145402,3.433356,-0.02824464,-0.001238342,1.011298,20.74477,13.65161,-41.57557,1028.301
1.586980343,-0.3069868,-0.2144728,3.37104,-0.03411314,-0.006184628,1.008579,20.74477,13.65161,-41.57557,1028.301
1.589448929,-0.3068903,-0.2731962,3.431219,-0.02678514,-0.004149474,1.009348,21.15102,12.58405,-40.71188,1028.301
1.591917038,-0.2452294,-0.1555288,3.613855,-0.02614656,-0.008431964,1.012718,21.15102,12.58405,-40.71188,1028.301
1.594385147,-0.3067169,0.3736368,3.429005,-0.03010443,-0.006073216,1.012327,21.15102,12.58405,-40.71188,1028.301
1.596853733,-0.245056,0.0795657,3.36669,-0.02837981,-0.004738459,1.004097,21.15102,12.58405,-40.71188,1028.301
1.599321842,-0.3681081,-0.03804082,3.365632,-0.0302802,-0.007650385,1.004639,21.15102,12.58405,-40.71188,1028.301
1.601789474,-0.3064279,0.1971342,3.425813,-0.02823185,-0.00805326,1.007957,21.15102,12.58405,-40.71188,1028.301
1.604261398,-0.1832025,0.02069996,3.424737,-0.02663876,-0.009902198,1.011774,21.15102,12.58405,-40.71188,1028.301
1.606726169,-0.3062741,0.4322288,3.423661,-0.02714509,-0.01040693,1.010826,21.15102,12.58405,-40.71188,1028.301
1.609194279,-0.2446133,0.4908838,3.422585,-0.03368066,-0.005728234,1.006642,21.15102,12.58405,-40.71188,1028.301
1.611662865,-0.306101,0.137985,3.360272,-0.02643019,-0.001794305,1.00548,21.15102,12.58405,-40.71188,1028.301
1.614130974,-0.429134,-0.1560122,3.481693,-0.02500238,-0.004238797,1.002566,21.15102,12.58405,-40.71188,1028.301
1.616599083,-0.3674346,0.07919989,3.419361,-0.02832557,-0.0008039363,1.008411,21.15102,12.58405,-40.71188,1028.301
1.619067669,-0.2441901,0.079175,3.479525,-0.0274075,-0.00521753,1.003594,21.15102,12.58405,-40.71188,1028.301
1.621535778,-0.2441134,-0.09722213,3.233479,-0.0292974,-0.007147836,1.005093,21.15102,12.58405,-40.71188,1028.303
1.624003410,-0.05934303,0.2555529,3.354939,-0.02693993,-0.003763407,1.003576,21.15102,12.58405,-40.71188,1028.303
1.626471996,-0.1824535,0.2554727,3.292647,-0.0277098,-0.006076103,1.010342,21.15102,12.58405,-40.71188,1028.303
1.628940105,-0.2439607,0.1966016,3.107899,-0.02931177,-0.00277085,1.007,21.15102,12.58405,-40.71188,1028.303
1.631413460,-0.1823195,0.3729122,3.16816,-0.02843088,-0.003797127,1.002651,21.15102,12.58405,-40.71188,1028.303
1.633876800,-0.2438268,0.137632,3.105927,-0.0259307,-0.004218308,1.004514,21.15102,12.58405,-40.71188,1028.303
1.636341095,-0.3053147,0.1963795,3.104951,-0.03228844,-0.002347486,1.00563,21.15102,12.58405,-40.71188,1028.303
1.638808727,-0.05896062,0.3726901,3.042737,-0.0308326,-0.003311496,1.004635,20.75145,13.66848,-40.729,1028.303
1.641277313,-0.3052003,0.1962007,2.919305,-0.03097007,0.0009849221,1.001734,20.75145,13.66848,-40.729,1028.303
1.643745422,-0.3051044,-0.03902395,2.795912,-0.02796538,0.002042039,1.005022,20.75145,13.66848,-40.729,1028.303
1.646213531,-0.1818795,0.2549421,2.856272,-0.02648285,-0.003290903,1.0026,20.75145,13.66848,-40.729,1028.303
1.648682117,-0.1818223,0.1372805,2.67166,-0.03595291,0.002326141,0.9989671,20.75145,13.66848,-40.729,1028.303
1.651150227,-0.3048943,0.2548189,2.670821,-0.03288801,-0.00242587,1.001315,20.75145,13.66848,-40.729,1028.303
1.653618812,-0.243234,0.0195758,2.547505,-0.02939978,-0.00185369,1.004111,20.75145,13.66848,-40.729,1028.303
1.656086922,-0.181593,-0.09801185,2.485467,-0.03587905,0.002374484,1.001852,20.75145,13.66848,-40.729,1028.303
1.658555031,-0.181536,-0.03919032,2.423448,-0.04093415,0.006105286,0.9976341,20.75145,13.66848,-40.729,1028.303
1.661023617,-0.2430435,-0.1567595,2.545163,-0.03446537,0.0008954946,0.9989353,20.75145,13.66848,-40.729,1028.302
1.663491726,-0.05827348,-0.2742918,2.360649,-0.04014079,0.001436734,1.006776,20.75145,13.66848,-40.729,1028.302
1.665959358,0.003309369,-0.1566241,2.114955,-0.03770374,-0.001462659,1.004801,20.75145,13.66848,-40.729,1028.302
1.668427944,-0.1813853,0.01979737,1.869338,-0.03297625,0.001902776,1.000337,20.75145,13.66848,-40.729,1028.302
1.670896053,-0.2428929,0.07858192,1.807512,-0.03440199,-3.778003E-05,1.000862,20.75145,13.66848,-40.729,1028.302
1.673364162,-0.1196875,0.07855723,1.684468,-0.03290056,0.000977559,1.002745,20.75145,13.66848,-40.729,1028.302
1.675832748,-0.1196499,0.01974179,1.745177,-0.03181722,-0.002840484,1.004658,20.75145,13.66848,-40.729,1028.302
1.678304672,-0.05804773,0.01973559,1.622153,-0.03774067,-0.00148683,1.003359,20.75145,13.66848,-40.729,1028.302
1.680768967,-0.1195941,-0.2154336,1.499167,-0.03872028,0.002886477,1.005772,20.75145,13.66848,-40.729,1028.302
1.683237553,0.003572613,0.07858784,1.253743,-0.04168074,-0.002040701,1.002017,20.75145,13.66848,-40.729,1028.302
1.685705662,-0.05799304,0.01977238,1.008397,-0.04272874,-0.0006364174,1.000113,20.75145,13.66848,-40.729,1028.302
1.688173294,-0.05797482,0.2549292,0.9468421,-0.03689352,0.002338575,1.000435,20.75145,13.66848,-40.729,1028.302
1.690641880,-0.05795661,-0.09789543,0.7628303,-0.03584735,0.001907847,1.002816,20.75342,13.28859,-41.56903,1028.302
1.693109989,-0.119503,-0.274237,0.8238287,-0.03782319,-0.003490347,0.9990383,20.75342,13.28859,-41.56903,1028.302
1.695578098,0.003663674,-0.1565693,0.8235699,-0.04085457,-0.0001785345,0.9971766,20.75342,13.28859,-41.56903,1028.302
1.698046684,0.003662527,0.1962245,0.5171205,-0.04172498,0.001829361,1.002484,20.75342,13.28859,-41.56903,1028.302
1.700514793,0.06522591,-0.09779097,0.45572,-0.03671045,2.15061E-05,1.006214,20.75342,13.28859,-41.56903,1028.306
1.702985287,0.12677,-0.2741325,0.2718624,-0.04015286,-0.00198281,1.004384,20.75342,13.28859,-41.56903,1028.306
1.705451488,0.1267301,-0.09767412,0.2105389,-0.03569597,5.741604E-05,1.007631,20.75342,13.28859,-41.56903,1028.306
1.707919598,-0.05800329,-0.09764344,0.08799651,-0.03961143,-0.0004803464,1.007252,20.75342,13.28859,-41.56903,1028.306
1.710387230,0.065144,-0.2151943,-0.03450739,-0.03967346,0.006302341,1.008669,20.75342,13.28859,-41.56903,1028.306
1.712856293,0.06512354,0.02003635,-0.03449655,-0.04004754,0.001010381,1.010144,20.75342,13.28859,-41.56903,1028.306
1.715323925,0.06510308,-0.09755144,-0.1569619,-0.04103376,-0.0009565316,1.008733,20.75342,13.28859,-41.56903,1028.306
1.717792034,0.1266472,-0.3914746,-0.340627,-0.03850528,-0.003308715,1.010604,20.75342,13.28859,-41.56903,1028.306
1.720260620,0.1266074,-0.1561886,-0.4017581,-0.04108458,-0.003426688,1.005376,20.75342,13.28859,-41.56903,1028.306
1.722728729,0.1881322,-0.1561395,-0.4628701,-0.03912923,-0.0068147,1.003416,20.75342,13.28859,-41.56903,1028.306
1.725196838,0.1265085,-0.4500442,-0.646439,-0.0357646,0.0004998818,1.005225,20.75342,13.28859,-41.56903,1028.306
1.727665424,0.1880333,-0.3911121,-0.7074741,-0.04005414,-0.005329838,1.00632,20.75342,13.28859,-41.56903,1028.306
1.730133533,0.06484516,-0.2734077,-0.8909662,-0.04016834,-0.006866723,1.001036,20.75342,13.28859,-41.56903,1028.306
1.732601166,0.003260255,-0.3321126,-0.9519244,-0.03774932,-0.003442004,1.001923,20.75342,13.28859,-41.56903,1028.306
1.735070229,-0.05830531,-0.09684519,-0.8903872,-0.03771446,0.000967212,1.005754,20.75342,13.28859,-41.56903,1028.306
1.737537861,0.1879712,0.197139,-1.012584,-0.04117783,-0.003000336,1.002008,20.75342,13.28859,-41.56903,1028.306
1.740005970,0.06478302,0.07949557,-0.9510276,-0.03902758,-0.001874385,1.01013,20.76565,12.93465,-41.10664,1028.305
1.744942665,0.2493973,0.1382549,-1.195363,-0.04072098,0.0008836538,1.002943,20.76565,12.93465,-41.10664,1028.305
1.747410774,0.1261898,-0.03816086,-1.378702,-0.03080432,-0.005242499,1.004642,20.76565,12.93465,-41.10664,1028.305
1.749879360,0.1261502,-0.03814887,-1.317031,-0.035191,-0.00528726,1.005235,20.76565,12.93465,-41.10664,1028.305
1.752347469,0.1261106,-0.09692763,-1.316617,-0.0376757,1.782551E-05,1.006719,20.76565,12.93465,-41.10664,1028.305
1.754815102,0.1260709,0.02068433,-1.43868,-0.0361321,0.001548141,1.010524,20.76565,12.93465,-41.10664,1028.305
1.757287502,0.1875959,0.0794686,-1.68318,-0.03808331,-0.003833937,1.007708,20.76565,12.93465,-41.10664,1028.305
1.759751797,0.1259724,0.02065288,-1.74389,-0.03472867,-0.00432395,1.004738,20.76565,12.93465,-41.10664,1028.305
1.762219906,0.1874974,0.02064639,-1.620865,-0.03222506,-0.003280759,1.007557,20.76565,12.93465,-41.10664,1028.305
1.764688492,0.249003,-0.2733139,-1.559118,-0.03650093,-0.003253007,1.012478,20.76565,12.93465,-41.10664,1028.305
1.767156601,0.1873602,-0.3908095,-1.803581,-0.03858439,-0.003847864,1.007239,20.76565,12.93465,-41.10664,1028.305
1.769625187,0.1873014,0.07963931,-1.803014,-0.04003158,-0.0009286813,1.00967,20.76565,12.93465,-41.10664,1028.305
1.772093296,0.1872425,0.02082352,-1.924924,-0.04054156,0.0005137026,1.009677,20.76565,12.93465,-41.10664,1028.305
1.774561405,0.1871837,-0.09676452,-1.740605,-0.03959205,-0.0009550396,1.007734,20.76565,12.93465,-41.10664,1028.305
1.777029991,0.2486894,0.07963815,-1.740058,-0.04096696,-0.0004254375,1.011617,20.76565,12.93465,-41.10664,1028.305
1.779498100,0.1870468,-0.0379684,-2.045702,-0.04193721,-0.004331414,1.009732,20.76565,12.93465,-41.10664,1028.305
1.781965733,0.186988,-0.2143287,-2.045059,-0.04016493,-0.005402353,1.001992,20.76565,12.93465,-41.10664,1028.307
1.784434795,0.3100584,-0.03788914,-1.983179,-0.03894481,-0.003282353,1.01254,20.76565,12.93465,-41.10664,1028.307
1.786902428,0.06370278,-0.03787723,-2.105032,-0.03761415,5.810894E-05,1.009124,20.76565,12.93465,-41.10664,1028.307
1.789370537,0.1868119,-0.03786533,-2.165609,-0.04039177,-0.003774654,1.013059,20.73973,14.02372,-41.12626,1028.307
1.791839123,0.4330113,-0.03785343,-2.226166,-0.0395494,-0.007263031,1.005834,20.73973,14.02372,-41.12626,1028.307
1.794307232,0.3097462,0.07973998,-2.041753,-0.03661697,-0.003816329,1.007671,20.73973,14.02372,-41.12626,1028.307
1.796775341,0.2480844,0.07971493,-2.10235,-0.03879733,-0.002037717,1.000019,20.73973,14.02372,-41.12626,1028.307
1.799243927,0.2480064,0.02089912,-2.285403,-0.04103693,-0.005832385,1.005866,20.73973,14.02372,-41.12626,1028.307
1.801712036,0.2479285,0.1972648,-2.223447,-0.04450396,-0.007852815,1.003075,20.73973,14.02372,-41.12626,1028.307
1.804180145,0.06315699,0.1972028,-2.222749,-0.04308004,-0.004938703,1.003027,20.73973,14.02372,-41.12626,1028.307
1.806648731,0.1247017,0.1971409,-2.405765,-0.03963057,-0.00341714,1.004858,20.73973,14.02372,-41.12626,1028.307
1.809116363,0.1246625,0.3146605,-2.405009,-0.0394564,-0.004277898,1.011113,20.73973,14.02372,-41.12626,1028.307
1.811584473,0.1861879,0.1969801,-2.281777,-0.04348788,-0.005378978,1.005926,20.73973,14.02372,-41.12626,1028.307
1.814053059,0.247694,0.255709,-2.464775,-0.04060994,-0.002455316,1.00536,20.73973,14.02372,-41.12626,1028.307
1.816522598,0.1244871,0.2556286,-2.464,-0.04064164,-0.001988679,1.004397,20.73973,14.02372,-41.12626,1028.307
1.818989277,0.1244479,0.1967576,-2.34075,-0.04109738,0.003388227,1.008717,20.73973,14.02372,-41.12626,1028.307
1.821457863,0.370667,-0.2736303,-2.401253,-0.04019003,0.001404502,1.004853,20.73973,14.02372,-41.12626,1028.308
1.823925972,0.2474215,-0.03838129,-2.400498,-0.03960254,-0.001936654,1.006776,20.73973,14.02372,-41.12626,1028.308
1.826394081,0.3089083,-0.09715998,-2.460983,-0.03956195,-0.003859602,1.007264,20.73973,14.02372,-41.12626,1028.308
1.828862667,0.2472467,-0.03833872,-2.521447,-0.04120086,-0.0005785264,1.00248,20.73973,14.02372,-41.12626,1028.308
1.831330776,0.1856045,0.07925484,-2.459417,-0.03719558,-0.001931479,1.005272,20.73973,14.02372,-41.12626,1028.308
1.833798408,0.2471107,0.02043918,-2.336168,-0.03626386,-0.0004876051,1.00428,20.73973,14.02372,-41.12626,1028.308
1.836263180,0.06233944,-0.1559395,-2.274196,-0.03812572,-0.0009374321,1.007697,20.73973,14.02372,-41.12626,1028.308
1.838731289,0.06231986,-0.09709975,-2.518434,-0.03676652,-0.002939459,1.002378,20.37472,13.65607,-41.11723,1028.308
1.841199398,0.370123,-0.15586,-2.456405,-0.04112517,-0.001503743,1.004888,20.37472,13.65607,-41.11723,1028.308
1.843667984,0.2468776,0.02056122,-2.516871,-0.03818203,-0.0004869103,1.005772,20.37472,13.65607,-41.11723,1028.308
1.846135616,0.2468001,0.02055477,-2.638557,-0.03969442,0.004339109,1.006753,20.37472,13.65607,-41.11723,1028.308
1.848603725,0.1235935,-0.09703319,-2.515252,-0.03570646,-0.0009241998,1.006673,20.37472,13.65607,-41.11723,1028.308
1.851072311,0.1851192,-0.0970027,-2.453223,-0.03906426,-0.005310042,1.006776,20.37472,13.65607,-41.11723,1028.308
1.853540420,0.3697546,-0.3321353,-2.636167,-0.04357795,-7.677451E-05,1.005426,20.37472,13.65607,-41.11723,1028.308
1.856008530,0.2465094,-0.2144494,-2.451625,-0.03280001,-0.003343029,1.004204,20.37472,13.65607,-41.11723,1028.308
1.858477116,0.1848674,-0.03800978,-2.634569,-0.0391124,0.003918625,1.010108,20.37472,13.65607,-41.11723,1028.308
1.860945225,0.2463739,0.07958368,-2.450027,-0.043135,0.001361232,1.004446,20.37472,13.65607,-41.11723,1028.306
1.863413334,0.2462965,0.3147217,-2.388019,-0.04305224,-4.673377E-05,1.006856,20.37472,13.65607,-41.11723,1028.306
1.865881920,0.3077836,0.2558321,-2.509745,-0.03913312,-0.001456093,1.006281,20.37472,13.65607,-41.11723,1028.306
1.868350029,0.1229933,0.07937943,-2.570194,-0.03854404,-0.002359327,1.009638,20.37472,13.65607,-41.11723,1028.306
1.870817661,0.2460838,0.1381452,-2.569387,-0.04667954,0.001239578,0.9997244,20.37472,13.65607,-41.11723,1028.306
1.873286247,0.1844419,0.1968926,-2.691056,-0.03865666,-0.001458282,1.005788,20.37472,13.65607,-41.11723,1028.306
1.875754356,0.1228194,0.02045847,-2.567734,-0.04056936,-0.004378265,1.005848,20.37472,13.65607,-41.11723,1028.306
1.878222465,0.2459099,0.02045205,-2.383213,-0.03917371,0.0004668534,1.005793,20.37472,13.65607,-41.11723,1028.306
1.880691051,0.3073972,-0.1559266,-2.504941,-0.04308917,-7.090531E-05,1.005413,20.37472,13.65607,-41.11723,1028.306
1.883159161,0.1841716,-0.1558777,-2.565392,-0.04152618,0.0009847172,1.0097,20.37472,13.65607,-41.11723,1028.306
1.885627747,0.1225492,0.07933434,-2.564586,-0.03664366,0.0005525984,1.009097,20.37472,13.65607,-41.11723,1028.306
1.888095856,0.1225107,0.02051865,-2.686257,-0.03862521,0.001486568,1.008662,20.73613,14.01464,-41.5821,1028.306
1.890564442,0.1224722,0.2556752,-2.685413,-0.03718486,-0.004361352,1.004319,20.73613,14.01464,-41.5821,1028.306
1.893032551,0.1839982,-0.09714963,-2.684569,-0.03611772,-0.002828846,1.008616,20.73613,14.01464,-41.5821,1028.306
1.895500660,0.1839404,0.07925316,-2.500011,-0.03212475,-0.004189862,1.010927,20.73613,14.01464,-41.5821,1028.306
1.897968292,0.1838827,0.07922826,-2.499226,-0.03262742,-0.006641716,1.009025,20.73613,14.01464,-41.5821,1028.306
1.900436878,0.2453894,-0.03837815,-2.437203,-0.03118206,-0.00858734,1.007071,20.73613,14.01464,-41.5821,1028.306
1.902904987,0.1837478,-0.09715684,-2.558913,-0.03319006,-0.006695926,1.006152,20.73613,14.01464,-41.5821,1028.306
1.905373096,0.1836901,-0.2147078,-2.680586,-0.03069535,-0.004196426,1.009447,20.73613,14.01464,-41.5821,1028.306
1.907841682,0.3683259,0.1381042,-2.557267,-0.03755943,-0.00283034,1.009615,20.73613,14.01464,-41.5821,1028.306
1.910309792,0.2450812,0.02047925,-2.433988,-0.03227454,9.849854E-05,1.007545,20.73613,14.01464,-41.5821,1028.306
1.912777901,0.3065687,0.07926358,-2.494461,-0.03326441,7.870235E-05,1.007089,20.73613,14.01464,-41.5821,1028.306
1.915246487,0.1833433,0.07923868,-2.616154,-0.02925864,-0.008097226,1.006058,20.73613,14.01464,-41.5821,1028.306
1.917714596,0.1217212,-0.03836775,-2.431617,-0.02926412,-0.005176546,1.00749,20.73613,14.01464,-41.5821,1028.306
1.920182228,0.244812,0.02043507,-2.369615,-0.02799317,-0.002849931,1.001193,20.73613,14.01464,-41.5821,1028.306
1.922650814,0.3062997,0.1968009,-2.246395,-0.02450677,-0.001304194,1.004466,20.73613,14.01464,-41.5821,1028.306
1.925118923,0.2446389,0.1379483,-2.123213,-0.02710498,-0.005506909,1.015136,20.73613,14.01464,-41.5821,1028.306
1.927587032,0.121433,0.1966958,-2.183784,-0.02473838,-0.006990271,1.011232,20.73613,14.01464,-41.5821,1028.306
1.930058956,0.1829594,0.3730062,-2.366812,-0.02349753,-0.00175909,1.005405,20.73613,14.01464,-41.5821,1028.306
1.934991837,0.2444283,0.1377382,-2.242868,-0.02192175,-0.007518379,1.006351,20.73613,14.01464,-41.5821,1028.306
1.937460423,0.1212224,0.1376949,-2.242164,-0.02625943,-0.004119433,1.010778,20.75342,13.28859,-41.56903,1028.306
1.939928532,0.1827489,-0.03872064,-2.118983,-0.02496545,-0.004214626,1.004009,20.75342,13.28859,-41.56903,1028.307
1.942396164,0.1826915,0.02008228,-1.934603,-0.02380482,-0.006519957,1.009763,20.75342,13.28859,-41.56903,1028.307
1.944865227,0.1826341,0.1964483,-1.995233,-0.02286785,-0.004585272,1.00925,20.75342,13.28859,-41.56903,1028.307
1.947332859,0.1825767,0.07880502,-1.810892,-0.0204926,-0.004113462,1.006782,20.75342,13.28859,-41.56903,1028.307
1.949800968,-0.002174273,0.07878027,-1.932799,-0.02620288,-0.007981442,1.010792,20.75342,13.28859,-41.56903,1028.307
1.952269554,-0.06373812,0.07875552,-1.809716,-0.01951139,-0.006048841,1.005803,20.75342,13.28859,-41.56903,1028.307
1.954737663,0.05941097,0.07873078,-1.625433,-0.02290796,-0.009485293,1.004941,20.75342,13.28859,-41.56903,1028.307
1.957205772,0.0593923,0.01991528,-1.686161,-0.02672311,-0.01093216,1.00793,20.75342,13.28859,-41.56903,1028.307
1.959674835,0.1825027,0.2550721,-1.624393,-0.02284275,-0.01139213,1.00639,20.75342,13.28859,-41.56903,1028.307
1.962142467,0.1824454,0.490155,-1.623883,-0.01888696,-0.009365829,1.009169,20.75342,13.28859,-41.56903,1028.307
1.964610100,0.1208235,0.0196749,-1.439658,-0.02384858,-0.00947286,1.006408,20.75342,13.28859,-41.56903,1028.307
1.967079163,0.1823501,0.1372502,-1.377968,-0.02532722,-0.009498525,1.005964,20.75342,13.28859,-41.56903,1028.307
1.969546795,-0.002400771,0.3135794,-1.316297,-0.02400338,-0.009086797,1.000636,20.75342,13.28859,-41.56903,1028.307
1.972014904,-0.002400011,0.01952708,-1.254645,-0.0228503,-0.004086407,1.01021,20.75342,13.28859,-41.56903,1028.307
1.974483490,0.1207298,0.1371025,-1.315489,-0.01841756,-0.008885266,1.008674,20.75342,13.28859,-41.56903,1028.307
1.976951599,0.1822565,0.2546409,-1.008885,-0.01808175,-0.00946689,1.002412,20.75342,13.28859,-41.56903,1028.307
1.979419708,0.1206347,0.2545609,-0.8860918,-0.0193828,-0.008888947,1.00918,20.75342,13.28859,-41.56903,1028.307
1.981888294,-0.06409685,0.1956902,-0.7633371,-0.02321367,-0.01180823,1.010732,20.75342,13.28859,-41.56903,1028.31
1.984356403,-0.002512187,0.3132102,-0.8855736,-0.02100234,-0.006082563,1.004879,20.75342,13.28859,-41.56903,1028.31
1.986824036,0.1206177,0.254321,-0.7628191,-0.02202937,-0.002715042,1.004891,20.75701,13.29768,-41.11319,1028.31
1.989293098,0.1821443,-0.03971265,-0.5788651,-0.01799923,-0.007463371,1.006733,20.75701,13.29768,-41.11319,1028.31
1.991760731,0.05895802,0.01909058,-0.5786833,-0.01809613,-0.005089903,1.00432,20.75701,13.29768,-41.11319,1028.31
1.994229794,0.1205041,0.01908459,-0.7009777,-0.02285006,-0.00749789,1.008299,20.75701,13.29768,-41.11319,1028.31
1.996697426,0.05890164,0.1366601,-0.5170431,-0.01944277,-0.006491307,1.008209,20.75701,13.29768,-41.11319,1028.31
1.999165535,-0.002681404,-0.03975509,-0.3944044,-0.01792378,-0.0049771,1.011052,20.75701,13.29768,-41.11319,1028.31
2.001634121,0.05888398,0.1366297,-0.3330424,-0.02199061,-0.003664428,1.005856,20.75701,13.29768,-41.11319,1028.31
2.004102230,-0.002699047,0.4305405,-0.2716996,-0.0205416,-0.007557176,1.002948,20.75701,13.29768,-41.11319,1028.31
2.006570339,-0.1873918,-0.09871154,-0.2103761,-0.02035329,-0.009383436,1.009206,20.75701,13.29768,-41.11319,1028.31
2.009038925,-0.06420386,0.3128548,-0.1490719,-0.01907892,-0.005592449,1.003865,20.75701,13.29768,-41.11319,1028.31
2.011507034,0.05894539,0.665501,0.09592743,-0.01829333,-0.00180733,0.9985368,20.75701,13.29768,-41.11319,1028.31
2.013974667,-0.0642022,0.1361751,0.2796117,-0.01424771,-0.00167175,1.003727,20.75701,13.29768,-41.11319,1028.31
2.016443729,-0.002617493,-0.04023993,0.1570476,-0.01529023,-0.003188144,1.000391,20.75701,13.29768,-41.11319,1028.31
2.018911362,-0.06418121,0.136145,0.1569982,-0.01429329,-0.003651097,1.000849,20.75701,13.29768,-41.11319,1028.31
2.021379471,-0.1872901,0.0185207,0.1569489,-0.01783808,-0.0003612693,0.9980381,20.75701,13.29768,-41.11319,1028.308
2.023848057,-0.0641022,-0.1578574,0.340614,-0.01670414,0.001702332,1.005219,20.75701,13.29768,-41.11319,1028.308
2.026316166,-0.1256466,-0.04022628,0.5242214,-0.01664783,0.00125181,1.007144,20.75701,13.29768,-41.11319,1028.308
2.028784275,-0.0640426,0.07736788,0.5852948,-0.02168856,0.0006056242,1.001019,20.75701,13.29768,-41.11319,1028.308
2.031253338,-0.125587,-0.04023795,0.5238728,-0.01732309,0.002098642,1.000421,20.75701,13.29768,-41.11319,1028.308
2.033720970,-0.06398302,0.01856545,0.6461844,-0.01580934,0.003122035,1.002784,20.75701,13.29768,-41.11319,1028.308
2.036184788,-0.2486566,-0.1578127,0.6459814,-0.02021516,0.0001404807,1.000983,21.13374,13.31009,-40.72496,1028.308
2.038653373,-0.1254494,0.1361907,0.7682548,-0.01971408,0.0001544077,1.001452,21.13374,13.31009,-40.72496,1028.308
2.041121483,-0.0638454,-0.1578059,0.8292515,-0.02060887,-0.001265299,1.003886,21.13374,13.31009,-40.72496,1028.308
2.043593406,-0.1253899,-0.216547,0.7677529,-0.02216344,0.003045738,1.002946,21.13374,13.31009,-40.72496,1028.308
2.046058178,-0.06378594,-0.09889749,0.8287498,-0.01729823,-0.001296729,0.9994719,21.13374,13.31009,-40.72496,1028.308
2.048526287,-0.1253305,-0.04007567,1.012204,-0.02017665,0.002602579,1.00386,21.13374,13.31009,-40.72496,1028.308
2.050993919,-0.06372653,-0.1576446,1.011886,-0.01914985,0.002646547,1.005758,21.13374,13.31009,-40.72496,1028.308
2.053462982,-0.1252711,-0.2163858,1.011568,-0.01826213,0.004549002,1.003322,21.13374,13.31009,-40.72496,1028.308
2.055930614,-0.002102613,0.2540082,1.072488,-0.02157642,0.006527551,1.008691,21.13374,13.31009,-40.72496,1028.308
2.058398723,-0.1867956,-0.2163976,1.133389,-0.02112433,0.003097763,1.005325,21.13374,13.31009,-40.72496,1028.308
2.060867309,-0.002043277,0.01883337,1.133033,-0.01912023,0.006564954,1.00911,21.13374,13.31009,-40.72496,1028.311
2.063335418,-0.06360717,-0.09875405,1.193916,-0.01759711,-0.0006909315,1.007176,21.13374,13.31009,-40.72496,1028.311
2.065805435,-0.1867163,-0.2163045,1.193541,-0.01965276,0.00360618,1.005767,21.13374,13.31009,-40.72496,1028.311
2.068272114,-0.1866576,-0.09865507,1.193166,-0.02255373,0.003104327,1.006805,21.13374,13.31009,-40.72496,1028.311
2.070740223,-0.1250345,-0.1574149,1.254029,-0.02203144,0.001670002,1.007279,21.13374,13.31009,-40.72496,1028.311
2.073208332,-0.1865597,-0.09857462,1.314873,-0.01967397,0.005054432,1.005762,21.13374,13.31009,-40.72496,1028.311
2.075676918,-0.063372,0.01903784,1.191984,-0.02298985,0.004595055,1.009697,21.13374,13.31009,-40.72496,1028.311
2.078144550,-0.001787558,0.1366134,1.130371,-0.02583634,0.004616242,1.013138,21.13374,13.31009,-40.72496,1028.311
2.080612659,-0.001786992,-0.1573833,1.31373,-0.02043128,-0.0006616879,1.011098,21.13374,13.31009,-40.72496,1028.311
2.083081245,-0.1249155,0.07782916,1.374556,-0.02050356,0.001727895,1.009646,21.13374,13.31009,-40.72496,1028.311
2.085549354,-0.06331171,-0.03977682,1.374124,-0.02490255,0.001675073,1.009758,21.14794,12.57626,-41.1026,1028.311
2.088017940,-0.1248564,0.01902644,1.373692,-0.02295061,-0.003177304,1.006841,21.14794,12.57626,-41.1026,1028.311
2.090486049,-0.1863817,-0.3925148,1.556975,-0.02251998,-0.001747351,1.00538,21.14794,12.57626,-41.1026,1028.311
2.092954159,-0.06319405,0.07793454,1.495248,-0.02013217,-0.004678972,1.001482,21.14794,12.57626,-41.1026,1028.311
2.095422268,-0.3094324,0.01911929,1.494778,-0.01945349,-0.004061438,1.009162,21.14794,12.57626,-41.1026,1028.311
2.097890854,-0.1862061,-0.157259,1.616785,-0.02434491,-0.00217301,1.01024,21.14794,12.57626,-41.1026,1028.311
2.100358963,-0.001453951,-0.03962807,1.555039,-0.02681683,-0.003682835,1.008384,21.14794,12.57626,-41.1026,1028.308
2.102827549,-0.1861471,-0.2159879,1.432074,-0.02058425,-0.001249183,1.004848,21.14794,12.57626,-41.1026,1028.308
2.105295181,-0.001395002,-0.3922923,1.5541,-0.02249671,-0.007580651,1.002998,21.14794,12.57626,-41.1026,1028.308
2.107763290,-0.0629591,0.01936623,1.553612,-0.02154584,-0.003199985,1.004399,21.14794,12.57626,-41.1026,1028.308
2.110231876,-0.1860684,0.1957324,1.6756,-0.02325632,-0.00550024,1.012632,21.14794,12.57626,-41.1026,1028.308
2.112699985,-0.18601,-0.0394921,1.675074,-0.01807675,-0.005564595,1.004802,21.14794,12.57626,-41.1026,1028.308
2.115168094,-0.124387,-0.03947969,1.674547,-0.0213696,-0.008445788,1.008266,21.14794,12.57626,-41.1026,1028.308
2.117636680,-0.1859125,0.1956957,1.796498,-0.01981344,-0.0103189,1.01064,21.14794,12.57626,-41.1026,1028.308
2.120104790,-0.185854,0.1956343,1.612219,-0.02095675,-0.004103217,1.007756,21.14794,12.57626,-41.1026,1028.308
2.125041485,-0.1241534,-0.03959627,1.611206,-0.01684567,-0.009285951,1.012486,21.14794,12.57626,-41.1026,1028.308
2.127509117,-0.1856789,0.3131607,1.855652,-0.02098979,-0.009485992,1.003448,21.14794,12.57626,-41.1026,1028.308
2.129980087,-0.1856206,0.1954808,2.038784,-0.02192152,-0.01092987,1.00444,21.14794,12.57626,-41.1026,1028.308
2.132445812,-0.1855623,-0.09853436,1.915667,-0.02136094,-0.006490612,1.009701,21.14794,12.57626,-41.1026,1028.308
2.134913921,-0.185504,0.01907809,1.792589,-0.01946715,-0.009918906,1.005337,21.52159,12.58089,-41.1051,1028.308
2.137382030,-0.1854457,0.1954444,1.914502,-0.01608812,-0.006981315,1.005239,21.52159,12.58089,-41.1051,1028.308
2.139850616,-0.1853875,-0.03978007,1.791424,-0.02134474,-0.01184116,1.007317,21.52159,12.58089,-41.1051,1028.31
2.142318725,-0.1237647,0.1953955,1.913338,-0.01806078,-0.007503659,1.004328,21.52159,12.58089,-41.1051,1028.31
2.144786835,-0.1852904,-0.1574105,1.912737,-0.01370055,-0.006501451,1.003252,21.52159,12.58089,-41.1051,1028.31
2.147255420,-0.3083612,-0.09857023,1.973374,-0.01952187,-0.007030455,1.004845,21.52159,12.58089,-41.1051,1028.31
2.149723530,-0.1235707,-0.15733,1.972754,-0.02190761,-0.008483883,1.006355,21.52159,12.58089,-41.1051,1028.31
2.152191162,-0.0004028231,-0.03969909,2.033372,-0.02244588,-0.005110493,1.006355,21.52159,12.58089,-41.1051,1028.31
2.154659748,-0.2466609,0.0778949,1.910257,-0.02280082,-0.007465662,1.010223,21.52159,12.58089,-41.1051,1028.31
2.157127857,-0.308148,-0.09850183,1.909657,-0.02134156,-0.006965306,1.010184,21.52159,12.58089,-41.1051,1028.31
2.159595966,-0.3080511,-0.3924247,2.031533,-0.0228731,-0.005076079,1.008771,21.52159,12.58089,-41.1051,1028.31
2.162064552,-0.3079544,-0.03955686,2.030895,-0.02071442,-0.0008470044,1.000038,21.52159,12.58089,-41.1051,1028.31
2.164532661,-0.1847285,0.3132001,2.213972,-0.01810344,-0.001195665,1.006229,21.52159,12.58089,-41.1051,1028.31
2.167000770,-0.1231059,0.3718925,2.152038,-0.02539815,-0.001259532,1.007857,21.52159,12.58089,-41.1051,1028.31
2.169469356,-0.2461963,-0.1573412,2.090124,-0.0234517,-0.003191229,1.006372,21.52159,12.58089,-41.1051,1028.31
2.171937465,-0.3076835,-0.2160825,2.211943,-0.02009365,-0.002216876,1.004358,21.52159,12.58089,-41.1051,1028.31
2.174405098,-0.1844578,-0.2748054,2.211248,-0.02202937,-0.002715042,1.004891,21.52159,12.58089,-41.1051,1028.31
2.176874161,-0.06127073,-0.1571375,2.149316,-0.02602942,-0.0008712783,1.002578,21.52159,12.58089,-41.1051,1028.31
2.179341793,-0.1843806,0.1368656,2.148641,-0.02347791,-0.00564527,1.003977,21.52159,12.58089,-41.1051,1028.31
2.181809902,-0.1843227,0.07803188,2.209203,-0.02399861,-0.001773015,1.004937,21.52159,12.58089,-41.1051,1028.305
2.184278488,-0.1842647,0.1367981,2.024795,-0.02857726,0.001955598,1.000225,20.75145,13.66848,-40.729,1028.305
2.186746597,-0.2457714,0.07796439,2.024159,-0.0292924,-0.003245544,1.007483,20.75145,13.66848,-40.729,1028.305
2.189215183,-0.1841296,-0.2160139,2.084761,-0.03219337,-0.003747394,1.008521,20.75145,13.66848,-40.729,1028.305
2.191683292,-0.1840718,0.07800775,2.145344,-0.02981994,-0.002302025,1.00653,20.75145,13.66848,-40.729,1028.305
2.194151401,-0.1224494,0.136774,2.022194,-0.02985139,-0.005246874,1.003656,20.75145,13.66848,-40.729,1028.305
2.196619034,-0.1839755,-0.1572228,2.021559,-0.02829729,-0.00273494,1.008418,20.75145,13.66848,-40.729,1028.305
2.199088096,-0.2454822,0.07798966,1.898448,-0.02904324,0.002939401,1.001677,20.75145,13.66848,-40.729,1028.305
2.201555729,-0.122276,0.1367559,1.775375,-0.02797404,8.686073E-05,1.003586,20.75145,13.66848,-40.729,1028.305
2.204024315,-0.1222376,-0.1572408,1.836055,-0.03091559,0.001507958,1.004136,20.75145,13.66848,-40.729,1028.305
2.206492424,-0.3068929,0.01918083,1.835478,-0.03531276,0.0004815776,1.00377,20.75145,13.66848,-40.729,1028.305
2.208960533,-0.1221028,-0.2159882,1.89614,-0.03233998,0.005416816,1.008006,20.75145,13.66848,-40.729,1028.305
2.211429119,-0.183629,-0.1571296,2.01802,-0.03245054,0.001932817,1.001767,20.75145,13.66848,-40.729,1028.305
2.213897228,-0.1220068,-0.215871,1.89491,-0.03539027,0.002380353,1.00184,20.75145,13.66848,-40.729,1028.305
2.216365337,-0.183533,-0.1570124,1.833077,-0.02998728,0.001487467,1.002188,20.75145,13.66848,-40.729,1028.305
2.218833923,-0.4297335,-0.03938158,1.771263,-0.03092425,-0.0004472174,1.002701,20.75145,13.66848,-40.729,1028.305
2.221302032,-0.2449049,-0.09815995,1.770706,-0.03382339,-0.001922628,1.003261,20.75145,13.66848,-40.729,1028.308
2.223769665,-0.1832634,-0.09812912,1.77015,-0.03170301,-0.0013036,1.009942,20.75145,13.66848,-40.729,1028.308
2.226238727,-0.2447703,0.01948321,1.89207,-0.02940367,0.003504912,1.006977,20.75145,13.66848,-40.729,1028.308
2.228707313,-0.2446935,0.01947708,1.891476,-0.03238922,0.005384589,1.006082,20.75145,13.66848,-40.729,1028.308
2.231174469,-0.183052,-0.2156921,1.829643,-0.03094021,0.001491843,1.003174,20.75145,13.66848,-40.729,1028.308
2.233643055,-0.1829945,-0.1568336,1.76783,-0.03489601,-0.0005344544,1.000396,21.12706,13.29322,-41.57153,1028.308
2.236107349,-0.1829371,-0.1567843,1.767275,-0.03240289,-0.0004728828,1.002257,21.12706,13.29322,-41.57153,1028.308
2.238574982,-0.1828796,-0.03915352,1.644244,-0.035274,-0.0004678108,1.004736,21.12706,13.29322,-41.57153,1028.308
2.241044044,-0.3675157,-0.2743043,1.704965,-0.03241385,0.005368475,1.005121,21.12706,13.29322,-41.57153,1028.308
2.243511677,-0.05957757,-0.5093811,1.643192,-0.03056771,0.004345877,1.000266,21.12706,13.29322,-41.57153,1028.308
2.245979786,0.06357022,-0.5680119,1.581437,-0.03010379,0.007747116,1.001203,21.12706,13.29322,-41.57153,1028.308
2.248448372,-0.1211434,0.02007417,1.703417,-0.02990317,0.005928911,1.007942,21.12706,13.29322,-41.57153,1028.308
2.250916481,-0.1826699,-0.09751363,1.702881,-0.03229233,0.003011118,1.008496,21.12706,13.29322,-41.57153,1028.308
2.253384590,-0.3673061,-0.2150645,1.57987,-0.03460421,0.001606035,1.012891,21.12706,13.29322,-41.57153,1028.308
2.255856514,-0.05936798,-0.3325785,1.579374,-0.02854923,0.003436078,1.002144,21.12706,13.29322,-41.57153,1028.308
2.258321285,-0.1209139,-0.3912647,1.701354,-0.02937881,0.0001095422,1.006028,21.12706,13.29322,-41.57153,1028.308
2.260788917,-0.244005,-0.2147695,1.700819,-0.03156918,-0.003652897,1.013798,21.12706,13.29322,-41.57153,1028.303
2.263257980,-0.1823638,-0.5086558,1.455333,-0.03173652,0.0001365952,1.009456,21.12706,13.29322,-41.57153,1028.303
2.265725612,-0.243871,-0.3321238,1.63859,-0.02847536,0.003484423,1.005029,21.12706,13.29322,-41.57153,1028.303
2.268193722,-0.1206653,0.07951585,1.699313,-0.0273886,0.001130747,1.007898,21.12706,13.29322,-41.57153,1028.303
2.270662308,-0.05906287,0.02070011,1.453827,-0.03757015,-0.0004004706,1.010568,21.12706,13.29322,-41.57153,1028.303
2.273130417,-0.1206089,-0.3320509,1.392132,-0.03078176,-0.0008413401,1.007992,21.12706,13.29322,-41.57153,1028.303
2.275598526,-0.05900642,-0.1555743,1.636647,-0.03165925,0.001649307,1.013297,21.12706,13.29322,-41.57153,1028.303
2.278067112,-0.1205525,-0.1555255,1.513657,-0.03220067,0.0001468398,1.01043,21.12706,13.29322,-41.57153,1028.303
2.280535221,-0.1205146,0.07968644,1.451943,-0.02930494,0.0001578834,1.008913,21.12706,13.29322,-41.57153,1028.303
2.283002853,-0.1204767,-0.03792012,1.390249,-0.03548646,-0.003217099,1.013895,20.75701,13.29768,-41.11319,1028.303
2.285471916,-0.05887429,-0.1554897,1.389812,-0.02891465,9.929761E-05,1.005054,20.75701,13.29768,-41.11319,1028.303
2.287939548,-0.1819849,-0.09665011,1.389375,-0.03084149,-0.001855182,1.00511,20.75701,13.29768,-41.11319,1028.303
2.290408611,-0.1819277,-0.09661974,1.327701,-0.03224626,-0.001832504,1.007552,20.75701,13.29768,-41.11319,1028.303
2.292876243,-0.1818706,0.02099212,1.327284,-0.03387628,-7.739291E-06,1.002292,20.75701,13.29768,-41.11319,1028.303
2.295344353,-0.1202489,-0.03780524,1.20439,-0.03575912,-0.002420798,1.003794,20.75701,13.29768,-41.11319,1028.303
2.297812939,-0.05864656,-0.2729564,1.204012,-0.0282656,-0.003201578,1.009381,20.75701,13.29768,-41.11319,1028.303
2.300281048,-0.05862814,-0.2140799,1.32611,-0.03152835,-0.008987328,1.012375,20.75701,13.29768,-41.11319,1028.303
2.302749157,0.06451935,0.3151042,1.264455,-0.03216509,-0.005678399,1.008528,20.75701,13.29768,-41.11319,1028.303
2.305217743,-0.05862999,0.1386329,1.20282,-0.02692579,-0.004728911,1.003579,20.75701,13.29768,-41.11319,1028.303
2.307685852,0.002952963,0.02100785,1.386156,-0.03030847,-0.00571938,1.004631,20.75701,13.29768,-41.11319,1028.303
2.310153484,0.002952039,0.07979202,1.202007,-0.03119461,-0.005183909,1.008501,20.75701,13.29768,-41.11319,1028.303
2.312622547,-0.05861342,0.02097619,1.201629,-0.03074777,-0.009104507,1.004656,20.75701,13.29768,-41.11319,1028.303
2.315090179,0.06453407,-0.03782116,1.26249,-0.03116474,-0.004676988,1.009942,20.75701,13.29768,-41.11319,1028.303
2.317558288,0.002949253,-0.03780928,1.078379,-0.03217764,-0.002274971,1.009958,20.75701,13.29768,-41.11319,1028.303
2.322494984,-0.05853976,0.1385498,1.016444,-0.0293464,-0.01059155,1.001259,20.75701,13.29768,-41.11319,1028.303
2.324963093,-0.05852138,-0.1554475,1.016124,-0.0325538,-0.003181886,1.013821,20.75701,13.29768,-41.11319,1028.303
2.327431679,-0.2431966,-0.3905617,1.015805,-0.02733864,-0.00907148,1.004089,20.75701,13.29768,-41.11319,1028.303
2.329899788,0.003137946,0.1974686,1.015486,-0.02818443,-0.007047471,1.010357,20.75701,13.29768,-41.11319,1028.303
2.332367897,-0.05842757,0.07982502,1.015167,-0.03449611,-0.01002027,1.01053,20.74837,13.6607,-41.11972,1028.303
2.334836483,-0.1199738,-0.3317354,0.8923719,-0.03167791,-0.008110458,1.007082,20.74837,13.6607,-41.11972,1028.303
2.337304115,-0.1815006,-0.03767736,1.075806,-0.02581442,-0.007066468,1.00741,20.74837,13.6607,-41.11972,1028.303
2.339772224,-0.0583145,0.1974975,1.01423,-0.03132867,0.0005768742,1.006556,20.74837,13.6607,-41.11972,1028.3
2.342240810,0.003268346,0.315017,0.891435,-0.02771297,-0.01095195,1.007474,20.74837,13.6607,-41.11972,1028.3
2.344708919,0.003267318,0.07975499,1.013631,-0.02740544,-0.009602575,1.001205,20.74837,13.6607,-41.11972,1028.3
2.347177029,-0.05829825,-0.09664233,0.8908365,-0.03041926,-0.005791893,1.000304,20.74837,13.6607,-41.11972,1028.3
2.349645614,-0.05827993,0.138551,0.7680804,-0.02877328,-0.009555722,1.00509,20.74837,13.6607,-41.11972,1028.3
2.352113724,-0.1198262,0.020926,0.7678391,-0.03415348,-0.007673165,1.00618,20.74837,13.6607,-41.11972,1028.3
2.354585171,-0.05822398,0.373664,0.7675979,-0.034241,-0.01357898,0.99947,20.74837,13.6607,-41.11972,1028.3
2.357050419,-0.05820568,0.2559651,0.7673567,-0.03181332,-0.008199086,1.001792,20.74837,13.6607,-41.11972,1028.3
2.359518051,-0.119752,0.1970939,0.8283537,-0.03072863,-0.006167715,1.00705,20.74837,13.6607,-41.11972,1028.3
2.361986160,-0.05814977,0.07945048,0.7668554,-0.0300096,-0.006325178,0.9969271,20.74837,13.6607,-41.11972,1028.3
2.364454746,-0.0581315,0.02063476,0.6441382,-0.03143216,-0.003389878,1.00032,20.74837,13.6607,-41.11972,1028.3
2.366922855,0.06501584,0.1382098,0.705174,-0.03430645,-0.008260662,0.9999311,20.74837,13.6607,-41.11972,1028.3
2.369390964,-0.05813366,-0.03820591,0.7049525,-0.03174447,-0.01205304,1.002288,20.74837,13.6607,-41.11972,1028.3
2.371859550,-0.11968,-0.03819391,0.5822547,-0.03086953,-0.003335668,1.003192,20.74837,13.6607,-41.11972,1028.3
2.374327659,-0.1812069,-0.09697266,0.5820718,-0.03088549,-0.001396606,1.003666,20.74837,13.6607,-41.11972,1028.3
2.376799583,-0.2427145,0.1970116,0.5818889,-0.0348837,-0.0005263984,1.000876,20.74837,13.6607,-41.11972,1028.3
2.379264355,0.003619909,0.1381589,0.520468,-0.03087318,-0.001388548,1.004147,20.74837,13.6607,-41.11972,1028.3
2.381732464,-0.05794576,-0.09704751,0.5815426,-0.03151992,-0.005884204,0.9955199,20.7743,12.57163,-41.10011,1028.303
2.384201050,-0.3041857,-0.03822628,0.4588837,-0.0310966,-0.0005600192,0.9959686,20.7743,12.57163,-41.10011,1028.303
2.386668682,-0.1193966,-0.1557958,0.5199776,-0.0314764,0.0004801862,1.000786,20.7743,12.57163,-41.10011,1028.303
2.389136791,-0.119359,-0.4497006,0.2748618,-0.03061147,0.00139297,0.9969108,20.7743,12.57163,-41.10011,1028.303
2.391605377,-0.1193216,-0.1556056,0.3972517,-0.03016852,0.002830975,0.9959313,20.7743,12.57163,-41.10011,1028.303
2.394073486,-0.0577195,-0.09676589,0.5196031,-0.02873754,0.005262339,0.9958851,20.7743,12.57163,-41.10011,1028.303
2.396541595,-0.1192659,-0.4494801,0.02953491,-0.02762457,0.005362707,1.00115,20.7743,12.57163,-41.10011,1028.303
2.399010181,-0.1192285,-0.3905481,0.09076376,-0.03502825,0.004252768,0.9979733,20.7743,12.57163,-41.10011,1028.303
2.401478290,-0.119191,-0.5080069,0.3356878,-0.03356351,0.001832449,0.9965025,20.7743,12.57163,-41.10011,1028.303
2.403946400,0.00397554,-0.3314751,0.1518679,-0.03582773,-0.00197833,1.001387,20.7743,12.57163,-41.10011,1028.303
2.406414986,-0.1191548,-0.6253247,0.09058207,-0.03592146,0.005270991,1.001841,20.7743,12.57163,-41.10011,1028.303
2.408883095,-0.1191174,-0.448756,-0.09316075,-0.03002628,0.005848339,1.003133,20.7743,12.57163,-41.10011,1028.303
2.411350727,0.004049137,0.08050183,0.02934476,-0.03482238,0.002925374,1.005192,20.7743,12.57163,-41.10011,1028.303
2.413819313,0.004047871,-0.3310588,-0.215617,-0.04176215,0.005216676,1.002952,20.7743,12.57163,-41.10011,1028.303
2.416287422,0.1887402,-0.5661178,-0.3380255,-0.03335106,0.006845275,1.007544,20.7743,12.57163,-41.10011,1028.303
2.418755531,0.003987312,-0.5071492,-0.2766812,-0.03528861,0.007320663,1.008554,20.7743,12.57163,-41.10011,1028.303
2.421224117,-0.05757847,-0.2718268,-0.3990705,-0.04271349,0.00765898,1.005372,20.7743,12.57163,-41.10011,1028.301
2.423692226,0.1271332,-0.0365784,-0.3989451,-0.03885959,0.008156451,1.003348,20.7743,12.57163,-41.10011,1028.301
2.426160335,0.2502224,-0.6832652,-0.7050104,-0.04022061,0.01113204,1.009144,20.7743,12.57163,-41.10011,1028.301
2.428628921,0.003885612,-0.2715153,-0.766027,-0.04248801,0.002445403,1.011162,20.7743,12.57163,-41.10011,1028.301
2.431097031,0.1270135,-0.2126392,-0.6433102,-0.04056983,0.002444708,1.00967,20.73613,14.01464,-41.5821,1028.301
2.433564663,0.06540902,-0.2713632,-0.7655843,-0.0416249,0.004331746,1.007764,20.73613,14.01464,-41.5821,1028.301
2.436029434,0.126953,-0.271278,-0.826582,-0.04209637,0.008236226,1.010647,20.73613,14.01464,-41.5821,1028.301
2.438497543,0.06534858,-0.3299835,-0.8263223,-0.04743916,0.003319985,1.009359,20.73613,14.01464,-41.5821,1028.301
2.440967560,0.003763512,-0.5062521,-0.8260627,-0.04212759,0.001879892,1.005862,20.73613,14.01464,-41.5821,1028.301
2.443434238,0.1268914,-0.3297208,-1.009517,-0.04351505,0.005812922,1.011174,20.73613,14.01464,-41.5821,1028.301
2.445902347,0.06528701,-0.09445415,-1.070439,-0.04091223,-0.003313888,1.012108,20.73613,14.01464,-41.5821,1028.301
2.448369980,0.0652665,-0.03563374,-1.008864,-0.04496859,-0.001019599,1.007871,20.73613,14.01464,-41.5821,1028.301
2.450838566,0.1268106,-0.0944133,-1.192261,-0.0449458,-2.992712E-05,1.00931,20.73613,14.01464,-41.5821,1028.301
2.453306675,0.06520616,-0.1531744,-1.253125,-0.04400017,0.003859934,1.010232,20.73613,14.01464,-41.5821,1028.301
2.455774784,0.003621131,-0.4470801,-1.313969,-0.0401531,0.001428676,1.006295,20.73613,14.01464,-41.5821,1028.301
2.458243370,0.06518453,-0.3293581,-1.436033,-0.04063845,0.002887173,1.007264,20.73613,14.01464,-41.5821,1028.301
2.460711479,0.1882932,-0.5056269,-1.435582,-0.0434496,0.0004946031,1.010713,20.73613,14.01464,-41.5821,1028.302
2.463179588,0.003540367,-0.3878865,-1.435131,-0.03809927,-0.001894876,1.008182,20.73613,14.01464,-41.5821,1028.302
2.465648174,0.06510378,-0.03502013,-1.557156,-0.03791349,0.005223343,1.000448,20.73613,14.01464,-41.5821,1028.302
2.468116283,0.1266479,0.08257239,-1.679143,-0.03871845,0.00191292,1.005294,20.73613,14.01464,-41.5821,1028.302
2.470584869,0.003479004,-0.3289889,-1.678616,-0.03746825,0.001128355,1.015371,20.73613,14.01464,-41.5821,1028.302
2.473052978,0.1881716,-0.3288855,-1.678088,-0.03744863,-0.002757825,1.013943,20.73613,14.01464,-41.5821,1028.302
2.475520611,0.1881124,-0.1524099,-1.861276,-0.03909826,0.002953123,1.010112,20.73613,14.01464,-41.5821,1028.302
2.477989197,0.06492424,-0.03478052,-1.921929,-0.03618499,0.003463032,1.009555,20.73613,14.01464,-41.5821,1028.302
2.480457306,0.1880329,-0.09356034,-1.860087,-0.03866214,0.001462396,1.00722,20.73613,14.01464,-41.5821,1028.302
2.482925415,0.2495384,-0.3874847,-1.920741,-0.03467077,-0.002336545,1.008097,20.77378,12.57033,-41.16523,1028.302
2.485394001,0.1263309,-0.1522,-1.981375,-0.03816265,-0.0009616036,1.006255,20.77378,12.57033,-41.16523,1028.302
2.487862110,0.1262912,-0.1521522,-2.041991,-0.03470404,-0.004307834,1.005699,20.77378,12.57033,-41.16523,1028.302
2.490333557,0.2493806,0.1418494,-2.102588,-0.03649704,-0.008611614,1.009612,20.77378,12.57033,-41.16523,1028.302
2.492798805,0.2493023,0.2593864,-2.163165,-0.03748874,-0.007657848,1.009633,20.77378,12.57033,-41.16523,1028.302
2.495266914,0.249224,0.2005141,-2.101248,-0.03450525,-0.005152477,1.012916,20.77378,12.57033,-41.16523,1028.302
2.497734547,0.1875812,0.08286963,-2.039349,-0.03660101,-0.005755391,1.007197,20.77378,12.57033,-41.16523,1028.302
2.500206470,0.3106513,0.08284359,-2.283661,-0.03812364,-0.005322475,1.005309,20.77378,12.57033,-41.16523,1028.301
2.502671242,0.1874246,-0.09355471,-2.221705,-0.0380922,-0.002377629,1.008183,20.77378,12.57033,-41.16523,1028.301
2.505139351,0.06423666,0.2004285,-2.15977,-0.03512031,-0.01011477,1.005253,20.77378,12.57033,-41.16523,1028.301
2.507607937,0.2489101,0.02399321,-2.220329,-0.03846422,-0.01205463,1.00727,20.77378,12.57033,-41.16523,1028.301
2.510076046,0.1872674,-0.09359583,-2.28087,-0.03458912,-0.01300541,1.005251,20.77378,12.57033,-41.16523,1028.301
2.512544155,0.002514914,0.02401507,-2.341391,-0.0354064,-0.01632389,1.009616,20.77378,12.57033,-41.16523,1028.301
2.515012741,0.3103368,0.02400753,-2.340656,-0.02918795,-0.01292473,1.006076,20.77378,12.57033,-41.16523,1028.301
2.519948482,0.1870128,0.02393705,-2.400404,-0.03549988,-0.01248605,1.008159,20.77378,12.57033,-41.16523,1028.301
2.522417545,0.1253895,0.02392952,-2.338412,-0.03747936,-0.01593713,1.005336,20.77378,12.57033,-41.16523,1028.301
2.524885178,0.3100437,0.259085,-2.276439,-0.03404586,-0.0124765,1.007641,20.77378,12.57033,-41.16523,1028.301
2.527353287,0.2483818,-0.03495015,-2.214486,-0.03498124,-0.01197326,1.009587,20.77378,12.57033,-41.16523,1028.301
2.529821873,0.1867392,-0.03493917,-2.21379,-0.03445712,-0.01438115,1.009584,20.77378,12.57033,-41.16523,1028.301
2.532289982,0.3098096,0.08265334,-2.274333,-0.03608213,-0.008654086,1.006715,21.13374,13.31009,-40.72496,1028.301
2.534758091,0.1250186,0.3177904,-2.334856,-0.03466322,-0.009642266,1.004277,21.13374,13.31009,-40.72496,1028.301
2.537226677,0.1249794,0.02373676,-2.334123,-0.03359584,-0.01152125,1.006663,21.13374,13.31009,-40.72496,1028.301
2.539694786,0.1865046,-0.03506145,-2.272151,-0.03742512,-0.01200261,1.009649,21.13374,13.31009,-40.72496,1028.298
2.542162418,0.3095751,0.3764849,-2.210199,-0.03607141,-0.01108395,1.005762,21.13374,13.31009,-40.72496,1028.298
2.544631481,0.1863488,0.3175758,-2.087029,-0.03452074,-0.01003639,1.009568,21.13374,13.31009,-40.72496,1028.298
2.547099113,0.1247257,0.08231305,-2.025135,-0.04035436,-0.01057346,1.01068,21.13374,13.31009,-40.72496,1028.298
2.549568176,0.2478156,0.3174502,-2.208213,-0.03803382,-0.007213194,1.00772,21.13374,13.31009,-40.72496,1028.298
2.552035808,0.3093023,0.3761413,-2.20752,-0.03752202,-0.009629138,1.007236,21.13374,13.31009,-40.72496,1028.298
2.554503918,0.186076,0.1996508,-2.023112,-0.03463836,-0.01303764,1.003327,21.13374,13.31009,-40.72496,1028.298
2.556972504,0.3091466,0.1407973,-1.961238,-0.03227931,-0.007215282,1.003244,21.13374,13.31009,-40.72496,1028.298
2.559440613,0.3706141,0.2583346,-2.02186,-0.03621414,-0.007278347,1.002381,21.13374,13.31009,-40.72496,1028.298
2.561908722,0.2473685,0.140672,-1.959987,-0.04150633,-0.006312948,1.006361,21.13374,13.31009,-40.72496,1028.298
2.564377308,0.1241618,-0.09453526,-1.959371,-0.04099476,-0.005317403,1.007788,21.13374,13.31009,-40.72496,1028.298
2.566848755,0.1856873,-0.03571482,-2.081232,-0.03922271,-0.002976861,1.001959,21.13374,13.31009,-40.72496,1028.298
2.569313049,0.308758,0.02308716,-2.141816,-0.03631969,-0.006860057,0.9985327,21.13374,13.31009,-40.72496,1028.298
2.571782112,0.308661,0.1406614,-2.079905,-0.03921016,-0.00638029,1.000529,21.13374,13.31009,-40.72496,1028.298
2.574249744,0.185435,-0.3297089,-2.018013,-0.04111762,-0.008809464,1.001068,21.13374,13.31009,-40.72496,1028.298
2.576722622,0.2469413,-0.2120237,-2.139856,-0.0377475,-0.004415564,1.001446,21.13374,13.31009,-40.72496,1028.298
2.579186439,0.1237346,0.1407874,-2.200421,-0.03542331,-0.003002424,0.9975318,21.13374,13.31009,-40.72496,1028.298
2.581654549,0.1852603,0.3171155,-2.138492,-0.03398684,-0.003491741,0.9960539,20.76565,12.93465,-41.10664,1028.296
2.584122658,0.1852021,0.2582251,-2.13782,-0.03665597,0.0005445424,1.008616,20.76565,12.93465,-41.10664,1028.296
2.586591244,0.1851439,0.3169347,-2.137149,-0.03721861,0.0004903302,1.005743,20.76565,12.93465,-41.10664,1028.296
2.589059353,0.1850857,0.1992536,-2.136477,-0.03581384,0.0004676506,1.003302,20.76565,12.93465,-41.10664,1028.296
2.591526985,0.123463,-0.03597201,-2.135806,-0.03481532,0.002442623,1.005193,20.76565,12.93465,-41.10664,1028.296
2.593996048,0.3081179,-0.2711238,-2.196373,-0.03382521,-0.0009490699,1.003739,20.76565,12.93465,-41.10664,1028.296
2.596463680,0.1233274,0.02291521,-2.195683,-0.03624813,0.0009848196,1.005717,20.76565,12.93465,-41.10664,1028.296
2.598931789,0.0001596063,-0.1534643,-2.194993,-0.03547827,0.003297512,0.9989511,20.76565,12.93465,-41.10664,1028.296
2.601400375,0.1848532,0.02295622,-2.133066,-0.03004018,0.003402358,1.001219,20.76565,12.93465,-41.10664,1028.296
2.603868484,0.1232306,0.1405305,-2.132396,-0.03227819,0.002045617,1.008499,20.76565,12.93465,-41.10664,1028.296
2.606336594,0.06162731,-0.0358859,-2.192964,-0.03326941,-0.003823591,1.004699,20.76565,12.93465,-41.10664,1028.296
2.608805180,0.1847371,0.1404977,-2.131037,-0.03098238,0.0009768642,1.001253,20.76565,12.93465,-41.10664,1028.296
2.611273289,0.2462436,0.08166277,-2.069129,-0.03524755,-0.001425253,1.00522,20.76565,12.93465,-41.10664,1028.296
2.613741398,0.1230371,-0.09473516,-2.252193,-0.032795,0.0005592667,1.006594,20.76565,12.93465,-41.10664,1028.296
2.616209984,0.3076921,0.0228761,-2.312724,-0.03492977,0.004317227,1.00182,20.76565,12.93465,-41.10664,1028.296
2.618677616,0.3075954,-0.2122941,-2.189521,-0.04312246,-0.002042195,1.003016,20.76565,12.93465,-41.10664,1028.296
2.621145725,0.2459342,-0.2710182,-2.127595,-0.03923868,-0.001037801,1.002432,20.76565,12.93465,-41.10664,1028.3
2.623614311,0.1842924,-0.2121423,-2.065689,-0.0370793,-0.004779646,1.008168,20.76565,12.93465,-41.10664,1028.3
2.626082420,0.12267,-0.2708664,-2.309992,-0.03619706,4.348904E-05,1.007163,20.76565,12.93465,-41.10664,1028.3
2.628551006,0.1226315,-0.1531998,-2.125552,-0.03746665,0.001302745,0.9966035,20.76565,12.93465,-41.10664,1028.3
2.631019115,0.1841575,-0.1531516,-2.186122,-0.03933375,0.0003621113,0.9995419,21.13374,13.31009,-40.72496,1028.3
2.633487224,0.3072287,-0.3294758,-2.246674,-0.0353041,0.002436754,1.005206,21.13374,13.31009,-40.72496,1028.3
2.635951996,0.1840031,-0.153,-2.18473,-0.03720106,0.0009891968,1.006703,21.13374,13.31009,-40.72496,1028.3
2.638419628,0.1223808,-0.09416117,-2.122805,-0.03872918,0.004342789,1.006247,21.13374,13.31009,-40.72496,1028.3
2.640887737,0.1223423,-0.3292947,-2.122139,-0.03250685,0.002383338,0.999842,21.13374,13.31009,-40.72496,1028.3
