Time (s),Gyroscope X (deg/s),Gyroscope Y (deg/s),Gyroscope Z (deg/s),Accelerometer X (g),Accelerometer Y (g),Accelerometer Z (g),Magnetometer X (uT),Magnetometer Y (uT),Magnetometer Z (uT),Barometer (hPa)
0.000000000,-0.1022803,-1.148723,-0.03501946,-0.184034,0.3209156,0.95536,25.22694,-0.5919328,-41.31086,1028.93
0.002481937,0.02092784,-1.089269,0.08699975,-0.1850159,0.3213818,0.9515246,25.22694,-0.5919328,-41.31086,1028.93
0.004963875,0.02092784,-1.267631,-0.09602907,-0.1874527,0.3165311,0.9529269,25.22694,-0.5919328,-41.31086,1028.93
0.007445335,0.02092784,-1.089269,-0.03501946,-0.1830539,0.3175069,0.9553313,25.22694,-0.5919328,-41.31086,1028.93
0.009926796,0.08253193,-0.9703615,0.2700286,-0.1835418,0.3199555,0.9577516,25.22694,-0.5919328,-41.31086,1028.93
0.012408733,-0.04067625,-1.089269,0.08699975,-0.1835442,0.3233644,0.9582596,25.22694,-0.5919328,-41.31086,1028.93
0.014889717,-0.04067625,-1.089269,0.08699975,-0.1835436,0.3233673,0.9587396,25.22694,-0.5919328,-41.31086,1028.93
0.017372131,0.08253193,-1.029815,-0.09602907,-0.1801157,0.3185124,0.962057,25.22694,-0.5919328,-41.31086,1028.93
0.019853115,-0.1638844,-1.029815,0.1480094,-0.1806037,0.3165616,0.9610815,25.22694,-0.5919328,-41.31086,1028.93
0.022335052,0.08253193,-0.9109076,0.08699975,-0.1845264,0.3208968,0.9520002,25.22694,-0.5919328,-41.31086,1028.93
0.024816990,0.144136,-0.9703615,-0.03501946,-0.1864855,0.3233206,0.9496217,25.22694,-0.5919328,-41.31086,1028.93
0.027303695,-0.1638844,-0.9109076,0.08699975,-0.1840285,0.3184999,0.9582202,25.22694,-0.5919328,-41.31086,1028.93
0.029780388,-0.1022803,-0.7325459,0.02599015,-0.1791514,0.3228432,0.9544118,25.22694,-0.5919328,-41.31086,1028.93
0.032261848,-0.04067625,-0.9109076,-0.09602907,-0.1820801,0.3199315,0.9543904,25.22694,-0.5919328,-41.31086,1028.93
0.034743786,0.02092784,-0.8514537,0.02599015,-0.1835446,0.3199411,0.9553516,25.22694,-0.5919328,-41.31086,1028.93
0.037225246,-0.1022803,-0.8514537,-0.03501946,-0.1830591,0.3189465,0.951983,25.22694,-0.5919328,-41.31086,1028.931
0.039707184,0.08253193,-0.7919998,0.08699975,-0.1791516,0.3199093,0.9519877,25.22694,-0.5919328,-41.31086,1028.931
0.042188644,-0.04067625,-0.6730919,0.08699975,-0.1801251,0.320908,0.9558368,25.22694,-0.5919328,-41.31086,1028.931
0.044670582,-0.1638844,-0.6730919,0.1480094,-0.178656,0.3214108,0.9591995,25.22694,-0.5919328,-41.31086,1028.931
0.047151565,-0.1638844,-0.4947302,0.02599015,-0.1767005,0.3179909,0.95773,25.9854,-0.9690952,-41.3277,1028.931
0.049633503,-0.2254885,-0.5541841,-0.1570387,-0.1776933,0.3198681,0.9457464,25.9854,-0.9690952,-41.3277,1028.931
0.052114963,-0.1638844,-0.4352763,0.08699975,-0.1815896,0.3189627,0.955342,25.9854,-0.9690952,-41.3277,1028.931
0.054596901,-0.1022803,-0.2569146,0.2700286,-0.1791436,0.316529,0.9562801,25.9854,-0.9690952,-41.3277,1028.931
0.057078838,-0.1022803,-0.5541841,0.1480094,-0.182564,0.3165353,0.955803,25.9854,-0.9690952,-41.3277,1028.931
0.059560299,-0.1022803,-0.3758224,0.08699975,-0.1820829,0.3199171,0.9519902,25.9854,-0.9690952,-41.3277,1028.931
0.062042236,0.02092784,-0.2569146,0.1480094,-0.1796427,0.3208752,0.9505562,25.9854,-0.9690952,-41.3277,1028.931
0.064523697,0.02092784,-0.3163685,0.3310382,-0.1810994,0.320925,0.9582376,25.9854,-0.9690952,-41.3277,1028.931
0.067005634,-0.04067625,-0.2569146,0.2700286,-0.1815896,0.3170078,0.953886,25.9854,-0.9690952,-41.3277,1028.931
0.069487095,-0.04067625,-0.4352763,0.1480094,-0.1825742,0.3218591,0.9510465,25.9854,-0.9690952,-41.3277,1028.931
0.071969032,-0.1022803,-0.4352763,0.2700286,-0.179644,0.3262449,0.9534799,25.9854,-0.9690952,-41.3277,1028.931
0.074450016,-0.1022803,-0.3163685,0.5140669,-0.1781813,0.3276921,0.9520506,25.9854,-0.9690952,-41.3277,1028.931
0.076932430,-0.1022803,-0.1974607,0.2700286,-0.1806264,0.3213328,0.9452807,25.9854,-0.9690952,-41.3277,1028.927
0.079413414,-0.1638844,-0.1380068,0.209019,-0.183058,0.3248172,0.9573111,25.9854,-0.9690952,-41.3277,1028.927
0.081895351,-0.1638844,-0.1380068,0.3920478,-0.1835482,0.3267648,0.9573274,25.9854,-0.9690952,-41.3277,1028.927
0.084376812,-0.1638844,-0.019099,0.209019,-0.1830656,0.3257559,0.9515588,25.9854,-0.9690952,-41.3277,1028.927
0.086858749,-0.1022803,0.04035491,0.08699975,-0.1811131,0.3257421,0.9501171,25.9854,-0.9690952,-41.3277,1028.927
0.089340687,-0.2254885,0.09980881,0.08699975,-0.1806285,0.3296306,0.9496685,25.9854,-0.9690952,-41.3277,1028.927
0.091822147,-0.1022803,-0.0785529,0.209019,-0.1776893,0.3223326,0.9510464,25.9854,-0.9690952,-41.3277,1028.927
0.094304085,-0.1022803,0.09980881,0.08699975,-0.1835482,0.3209,0.9529595,25.9854,-0.9690952,-41.3277,1028.927
0.096785545,-0.2254885,0.04035491,0.08699975,-0.190384,0.3165389,0.9529294,25.24436,-1.334113,-40.92044,1028.927
0.099267483,-0.1638844,0.04035491,0.08699975,-0.1801317,0.3213631,0.9505605,25.24436,-1.334113,-40.92044,1028.927
0.101748943,-0.1638844,0.09980881,0.3920478,-0.1733081,0.3339703,0.9463381,25.24436,-1.334113,-40.92044,1028.927
0.104230881,-0.1638844,0.2781706,0.209019,-0.1801293,0.3277288,0.9573326,25.24436,-1.334113,-40.92044,1028.927
0.106711864,-0.1638844,0.2781706,-0.09602907,-0.1850144,0.3306757,0.9597605,25.24436,-1.334113,-40.92044,1028.927
0.109194279,-0.2254885,0.09980881,-0.03501946,-0.1772048,0.3257317,0.9501138,25.24436,-1.334113,-40.92044,1028.927
0.111675262,-0.2254885,0.1592627,-0.1570387,-0.160573,0.324331,0.9673687,25.24436,-1.334113,-40.92044,1028.927
0.114160061,-0.2254885,0.8727096,-0.4620867,-0.1854942,0.3199693,0.9591933,25.24436,-1.334113,-40.92044,1028.927
0.116638660,-0.1638844,0.3970784,-0.3400675,-0.1913714,0.3057362,0.9360421,25.24436,-1.334113,-40.92044,1028.93
0.119120598,-0.1638844,-0.019099,-0.6451156,-0.1654436,0.3073135,0.9672335,25.24436,-1.334113,-40.92044,1028.93
0.121602535,-0.1022803,0.9321635,-0.8281444,-0.1771725,0.3014598,0.9595152,25.24436,-1.334113,-40.92044,1028.93
0.124083996,0.08253193,0.8727096,-0.584106,-0.2050581,0.3164861,0.9375811,25.24436,-1.334113,-40.92044,1028.93
0.126565933,-0.1022803,0.09980881,-0.5230963,-0.1811031,0.3135746,0.9495376,25.24436,-1.334113,-40.92044,1028.93
0.129047394,0.144136,0.634894,-0.5230963,-0.1688649,0.3180676,0.9740441,25.24436,-1.334113,-40.92044,1028.93
0.131529331,-0.04067625,1.110525,-0.3400675,-0.1947815,0.3121484,0.9490572,25.24436,-1.334113,-40.92044,1028.93
0.134010792,-0.1638844,0.4565322,-0.09602907,-0.1923383,0.3101898,0.948079,25.24436,-1.334113,-40.92044,1028.93
0.136492729,0.144136,0.5159862,-0.3400675,-0.1898652,0.3147376,0.9773939,25.24436,-1.334113,-40.92044,1028.93
0.138973713,0.144136,0.9321635,-0.4620867,-0.2148288,0.3028275,0.9273975,25.24436,-1.334113,-40.92044,1028.93
0.141455650,0.08253193,-0.1974607,-0.7671348,-0.180136,0.3159647,0.9428364,25.24436,-1.334113,-40.92044,1028.93
0.143937111,0.2057401,0.4565322,-1.011173,-0.1542154,0.3082195,0.9609917,25.24436,-1.334113,-40.92044,1028.93
0.146419048,0.3289483,1.467249,-0.8281444,-0.1962619,0.3291828,0.9491977,25.24109,-0.5847763,-40.92749,1028.93
0.148900509,0.02092784,0.3376244,-0.889154,-0.1962291,0.3068687,0.9605349,25.24109,-0.5847763,-40.92749,1028.93
0.151382446,0.2057401,0.5159862,-0.7061251,-0.1732599,0.3166224,0.9745159,25.24109,-0.5847763,-40.92749,1028.93
0.153864384,0.02092784,1.169979,-0.7061251,-0.1977299,0.3150011,0.936603,25.24109,-0.5847763,-40.92749,1028.93
0.156345844,0.2057401,0.634894,-0.7061251,-0.2006759,0.3159103,0.9246129,25.24109,-0.5847763,-40.92749,1028.931
0.158827781,0.2057401,0.3376244,-0.4620867,-0.1806129,0.3233566,0.9582571,25.24109,-0.5847763,-40.92749,1028.931
0.161309242,-0.1638844,1.288887,-0.4620867,-0.2206996,0.3091543,0.925054,25.24109,-0.5847763,-40.92749,1028.931
0.163791179,-0.3486967,0.9321635,-0.4010771,-0.2881491,0.3199268,0.9064774,25.24109,-0.5847763,-40.92749,1028.931
0.166277885,-0.4719049,-1.267631,-0.2790579,-0.2054758,0.2821493,0.9723402,25.24109,-0.5847763,-40.92749,1028.931
0.168754577,0.3289483,0.4565322,-0.1570387,-0.1849647,0.3187119,0.9932624,25.24109,-0.5847763,-40.92749,1028.931
0.171235561,0.3289483,1.051071,-0.1570387,-0.2519726,0.3062722,0.917376,25.24109,-0.5847763,-40.92749,1028.931
0.173717499,0.5137606,-1.148723,-0.1570387,-0.1996932,0.3379303,0.945912,25.24109,-0.5847763,-40.92749,1028.931
0.176198959,-0.1022803,-0.1974607,-0.4620867,-0.1678951,0.3278025,0.9750829,25.24109,-0.5847763,-40.92749,1028.931
0.178680897,-0.2870926,0.7538018,-0.6451156,-0.231938,0.3179715,0.9299352,25.24109,-0.5847763,-40.92749,1028.931
0.181162357,-0.1022803,-0.7325459,-0.7671348,-0.2143269,0.3087599,0.9432854,25.24109,-0.5847763,-40.92749,1028.931
0.183644295,0.3289483,-0.4947302,-0.7061251,-0.1722602,0.2996295,0.981096,25.24109,-0.5847763,-40.92749,1028.931
0.186126232,0.5137606,0.5159862,-0.6451156,-0.219238,0.32477,0.9333404,25.24109,-0.5847763,-40.92749,1028.931
0.188607693,0.3905524,-0.5541841,-0.3400675,-0.2128962,0.3139535,0.917407,25.24109,-0.5847763,-40.92749,1028.931
0.191092491,0.2057401,-0.9109076,-0.1570387,-0.1722894,0.3248947,0.9750627,25.24109,-0.5847763,-40.92749,1028.931
0.193576336,-0.3486967,0.3970784,-0.03501946,-0.210425,0.3116489,0.9399459,25.24109,-0.5847763,-40.92749,1028.931
0.196053028,-0.1022803,-0.3163685,-0.09602907,-0.2182384,0.3092425,0.9408925,24.86432,-0.9581981,-40.91379,1028.927
0.198534012,0.2673442,-1.148723,0.02599015,-0.1820562,0.3151661,0.9711512,24.86432,-0.9581981,-40.91379,1028.927
0.201016426,0.3905524,-0.0785529,-0.1570387,-0.1991899,0.3248084,0.9486843,24.86432,-0.9581981,-40.91379,1028.927
0.203497410,0.2057401,-0.3758224,-0.2790579,-0.2138835,0.3388294,0.9272111,24.86432,-0.9581981,-40.91379,1028.927
0.205979347,0.02092784,-1.029815,-0.6451156,-0.1859881,0.3228757,0.9568176,24.86432,-0.9581981,-40.91379,1028.927
0.208460808,0.144136,-0.1974607,-0.7671348,-0.2030765,0.3205314,0.9640123,24.86432,-0.9581981,-40.91379,1028.927
0.210942745,0.144136,-0.3758224,-0.7671348,-0.2226289,0.3039104,0.9422925,24.86432,-0.9581981,-40.91379,1028.927
0.213424682,0.5137606,-1.089269,-0.584106,-0.2050358,0.3161114,0.9562978,24.86432,-0.9581981,-40.91379,1028.927
0.215906143,0.3905524,-0.9703615,-0.4010771,-0.2094482,0.3223971,0.947713,24.86432,-0.9581981,-40.91379,1028.927
0.218389988,0.3289483,-0.8514537,-0.3400675,-0.2231566,0.3217949,0.9222794,24.86432,-0.9581981,-40.91379,1028.927
0.220869541,-0.04067625,-1.386539,-0.3400675,-0.2099466,0.3252806,0.941497,24.86432,-0.9581981,-40.91379,1028.927
0.223351478,-0.2254885,-1.089269,-0.2790579,-0.2045516,0.3126667,0.9500293,24.86432,-0.9581981,-40.91379,1028.927
0.225832939,0.08253193,-0.9109076,-0.1570387,-0.2177425,0.3156328,0.9519842,24.86432,-0.9581981,-40.91379,1028.927
0.228314876,0.3289483,-1.743262,-0.2180483,-0.2084565,0.3087844,0.9500008,24.86432,-0.9581981,-40.91379,1028.927
0.230795860,0.4521565,-1.505447,-0.5230963,-0.2011453,0.3262734,0.9486979,24.86432,-0.9581981,-40.91379,1028.927
0.233277798,0.08253193,-1.267631,-0.5230963,-0.2060418,0.3325833,0.9439535,24.86432,-0.9581981,-40.91379,1028.927
0.235759258,0.02092784,-1.564901,-0.4010771,-0.2089806,0.32962,0.9352918,24.86432,-0.9581981,-40.91379,1028.93
0.238241196,-0.04067625,-1.564901,-0.4010771,-0.2065038,0.3234341,0.9597188,24.86432,-0.9581981,-40.91379,1028.93
0.240722656,-0.1022803,-1.624354,-0.5230963,-0.2167629,0.3127107,0.9519596,24.86432,-0.9581981,-40.91379,1028.93
0.243204593,0.3289483,-1.802716,-0.4010771,-0.2182346,0.3165929,0.9495926,24.86432,-0.9581981,-40.91379,1028.93
0.245686054,0.2057401,-1.802716,-0.1570387,-0.2079888,0.3223616,0.9424314,25.22858,-0.9666015,-41.30734,1028.93
0.248167991,0.08253193,-1.86217,-0.1570387,-0.2133839,0.3325311,0.9319592,25.22858,-0.9666015,-41.30734,1028.93
0.250649929,-0.1022803,-2.040532,-0.1570387,-0.2158075,0.3248154,0.9424579,25.22858,-0.9666015,-41.30734,1028.93
0.255613327,0.08253193,-2.099986,0.02599015,-0.207483,0.3160949,0.9524597,25.22858,-0.9666015,-41.30734,1028.93
0.258094311,0.2057401,-2.397255,-0.1570387,-0.2065094,0.3234055,0.9549186,25.22858,-0.9666015,-41.30734,1028.93
0.260576725,0.3905524,-2.337801,-0.1570387,-0.2011534,0.3355185,0.9487734,25.22858,-0.9666015,-41.30734,1028.93
0.263057709,-0.1022803,-2.218894,-0.2180483,-0.2060419,0.3320938,0.9434695,25.22858,-0.9666015,-41.30734,1028.93
0.265539646,-0.1638844,-2.278347,-0.4010771,-0.2050506,0.3253221,0.9506133,25.22858,-0.9666015,-41.30734,1028.93
0.268022537,-0.1022803,-2.337801,-0.4010771,-0.2069939,0.3180515,0.9543954,25.22858,-0.9666015,-41.30734,1028.93
0.270503044,0.02092784,-2.397255,-0.09602907,-0.2128519,0.3161351,0.9567844,25.22858,-0.9666015,-41.30734,1028.93
0.272984505,0.144136,-2.575617,0.02599015,-0.2123837,0.3233608,0.9448433,25.22858,-0.9666015,-41.30734,1028.93
0.275466442,0.08253193,-2.813432,-0.03501946,-0.2060422,0.3232951,0.9366776,25.22858,-0.9666015,-41.30734,1028.927
0.277947903,-0.1022803,-2.872886,-0.03501946,-0.2094593,0.3247841,0.9400525,25.22858,-0.9666015,-41.30734,1028.927
0.280430317,-0.2870926,-2.813432,-0.09602907,-0.2089685,0.3208844,0.9390603,25.22858,-0.9666015,-41.30734,1028.927
0.282911777,-0.2870926,-2.93234,0.02599015,-0.2074803,0.3156198,0.9543759,25.22858,-0.9666015,-41.30734,1028.927
0.285393238,-0.2254885,-3.051248,0.02599015,-0.203076,0.3141799,0.9596404,25.22858,-0.9666015,-41.30734,1028.927
0.287875175,-0.04067625,-3.229609,0.1480094,-0.207013,0.3238188,0.9424425,25.22858,-0.9666015,-41.30734,1028.927
0.290356159,0.08253193,-3.289063,0.08699975,-0.2021241,0.3282223,0.9487146,25.22858,-0.9666015,-41.30734,1028.927
0.292838573,-0.1638844,-3.110702,0.08699975,-0.1986991,0.3228637,0.949148,25.22858,-0.9666015,-41.30734,1028.927
0.295319557,-0.3486967,-3.289063,0.02599015,-0.2055382,0.3165304,0.9447818,25.23186,-1.715938,-41.30029,1028.927
0.297801494,-0.3486967,-3.586333,-0.1570387,-0.2045543,0.3150968,0.9495692,25.23186,-1.715938,-41.30029,1028.927
0.300282955,-0.2870926,-3.407971,-0.1570387,-0.203572,0.3195193,0.9572845,25.23186,-1.715938,-41.30029,1028.927
0.302766800,0.02092784,-3.467425,-0.09602907,-0.2069992,0.3190017,0.9505631,25.23186,-1.715938,-41.30029,1028.927
0.305251121,0.144136,-3.705241,0.1480094,-0.2045707,0.3203889,0.9395325,25.23186,-1.715938,-41.30029,1028.927
0.307728290,-0.1022803,-3.764695,0.1480094,-0.2001701,0.3218628,0.943861,25.23186,-1.715938,-41.30029,1028.927
0.310210228,-0.3486967,-3.705241,0.08699975,-0.2045682,0.3213793,0.9424206,25.23186,-1.715938,-41.30029,1028.927
0.312691688,-0.3486967,-3.883603,0.1480094,-0.2069939,0.3180515,0.9543954,25.23186,-1.715938,-41.30029,1028.927
0.315173626,-0.2870926,-3.764695,0.1480094,-0.2045455,0.3126982,0.9553095,25.23186,-1.715938,-41.30029,1028.927
0.317655086,0.02092784,-3.943057,0.08699975,-0.205538,0.3194643,0.9472058,25.23186,-1.715938,-41.30029,1028.927
0.320137024,-0.04067625,-3.943057,0.3310382,-0.2001692,0.3267545,0.948221,25.23186,-1.715938,-41.30029,1028.927
0.322618008,-0.2870926,-3.943057,0.1480094,-0.1967503,0.3257636,0.9467701,25.23186,-1.715938,-41.30029,1028.927
0.325099945,-0.4103008,-3.943057,-0.09602907,-0.2001691,0.3233341,0.945793,25.23186,-1.715938,-41.30029,1028.927
0.327581405,-0.3486967,-4.061965,0.02599015,-0.1967406,0.3145722,0.9466785,25.23186,-1.715938,-41.30029,1028.927
0.330063343,-0.1022803,-4.180872,0.02599015,-0.2011324,0.3165646,0.9524583,25.23186,-1.715938,-41.30029,1028.927
0.332544803,-0.04067625,-4.29978,0.209019,-0.2016308,0.3194482,0.9462425,25.23186,-1.715938,-41.30029,1028.927
0.335026741,-0.2254885,-4.29978,0.2700286,-0.2026164,0.3208732,0.940015,25.23186,-1.715938,-41.30029,1028.927
0.337508201,-0.3486967,-4.418688,0.3310382,-0.199682,0.326258,0.9467765,25.23186,-1.715938,-41.30029,1028.927
0.339990139,-0.2870926,-4.478142,0.4530574,-0.1962503,0.3228887,0.9544261,25.23186,-1.715938,-41.30029,1028.927
0.342472076,-0.2870926,-4.418688,0.5140669,-0.2001563,0.3131359,0.9490696,25.23186,-1.715938,-41.30029,1028.927
0.344953537,-0.2254885,-4.478142,0.5750765,-0.2006439,0.3165633,0.9524579,24.48427,-0.5822827,-40.90713,1028.927
0.347435474,-0.2254885,-4.656504,0.5750765,-0.1957693,0.3179613,0.9443055,24.48427,-0.5822827,-40.90713,1028.927
0.349916458,-0.2254885,-4.537596,0.4530574,-0.1947908,0.3208983,0.9476888,24.48427,-0.5822827,-40.90713,1028.927
0.352398872,-0.2254885,-4.656504,0.4530574,-0.1938116,0.3282375,0.9549478,24.48427,-0.5822827,-40.90713,1028.927
0.354879856,-0.2254885,-4.834865,0.4530574,-0.1947866,0.3199424,0.9505609,24.48427,-0.5822827,-40.90713,1028.927
0.357361793,-0.4103008,-4.715958,0.4530574,-0.1942849,0.3131661,0.956745,24.48427,-0.5822827,-40.90713,1028.926
0.359843254,-0.2254885,-4.775411,0.3920478,-0.1908664,0.3185267,0.959666,24.48427,-0.5822827,-40.90713,1028.926
0.362325191,-0.1022803,-4.656504,0.4530574,-0.1889342,0.3257399,0.9462836,24.48427,-0.5822827,-40.90713,1028.926
0.364806652,-0.1022803,-4.834865,0.5140669,-0.1913793,0.3252455,0.9438815,24.48427,-0.5822827,-40.90713,1028.926
0.367288589,-0.3486967,-4.834865,0.5750765,-0.187953,0.3247814,0.9491549,24.48427,-0.5822827,-40.90713,1028.926
0.369770527,-0.4719049,-4.834865,0.5140669,-0.1879423,0.3170161,0.9524512,24.48427,-0.5822827,-40.90713,1028.926
0.372251987,-0.3486967,-5.013227,0.4530574,-0.1874561,0.3184688,0.9515028,24.48427,-0.5822827,-40.90713,1028.926
0.374733925,-0.4103008,-4.953773,0.3920478,-0.1869655,0.3179895,0.9529384,24.48427,-0.5822827,-40.90713,1028.926
0.377215385,-0.04067625,-5.013227,0.3310382,-0.1874584,0.3223672,0.9524946,24.48427,-0.5822827,-40.90713,1028.926
0.379697323,-0.2254885,-5.013227,0.2700286,-0.1835459,0.3233558,0.9568195,24.48427,-0.5822827,-40.90713,1028.926
0.382178306,-0.1638844,-4.953773,0.2700286,-0.1815962,0.3272375,0.9558897,24.48427,-0.5822827,-40.90713,1028.926
0.384660721,-0.2254885,-4.894319,0.2700286,-0.1850109,0.3194527,0.9543889,24.48427,-0.5822827,-40.90713,1028.926
0.387141704,-0.2254885,-4.953773,0.3920478,-0.1859873,0.3179927,0.9538977,24.48427,-0.5822827,-40.90713,1028.926
0.389627933,-0.2254885,-4.894319,0.3310382,-0.1845132,0.3141219,0.9581848,24.48427,-0.5822827,-40.90713,1028.926
0.392105102,-0.1638844,-4.894319,0.4530574,-0.1835496,0.3199153,0.9510314,24.48427,-0.5822827,-40.90713,1028.926
0.394587040,-0.2254885,-4.894319,0.5140669,-0.1855101,0.3233094,0.9481808,24.84854,-0.5906861,-41.30068,1028.926
0.397068500,-0.2870926,-4.953773,0.4530574,-0.1830674,0.3233029,0.9481788,24.84854,-0.5906861,-41.30068,1028.927
0.399550438,-0.4103008,-4.953773,0.4530574,-0.1781735,0.3199125,0.952947,24.84854,-0.5906861,-41.30068,1028.927
0.402031898,-0.2870926,-4.953773,0.6360862,-0.1810925,0.317539,0.9615699,24.84854,-0.5906861,-41.30068,1028.927
0.404513836,-0.3486967,-5.013227,0.5140669,-0.1830518,0.3189839,0.9582233,24.84854,-0.5906861,-41.30068,1028.927
0.406995773,-0.1638844,-4.953773,0.3920478,-0.1771966,0.3189309,0.9519781,24.84854,-0.5906861,-41.30068,1028.927
0.409477234,-0.1638844,-4.953773,0.3920478,-0.1791584,0.3237848,0.9491396,24.84854,-0.5906861,-41.30068,1028.927
0.411959171,-0.2254885,-4.894319,0.2700286,-0.1825821,0.3218189,0.9443263,24.84854,-0.5906861,-41.30068,1028.927
0.414440155,-0.4719049,-4.834865,0.209019,-0.1840294,0.3131187,0.9533762,24.84854,-0.5906861,-41.30068,1028.927
0.416922092,-0.4103008,-4.894319,0.209019,-0.1810967,0.3106752,0.9528738,24.84854,-0.5906861,-41.30068,1028.927
0.419403553,-0.2254885,-4.894319,0.4530574,-0.1811068,0.3145334,0.9471455,24.84854,-0.5906861,-41.30068,1028.927
0.421885490,-0.1022803,-4.834865,0.5140669,-0.1815906,0.3174915,0.95341,24.84854,-0.5906861,-41.30068,1028.927
0.424366951,-0.2254885,-4.953773,0.4530574,-0.180128,0.3164943,0.9500407,24.84854,-0.5906861,-41.30068,1028.927
0.426849365,-0.2870926,-4.894319,0.5140669,-0.17866,0.3150364,0.9509875,24.84854,-0.5906861,-41.30068,1028.927
0.429330349,-0.2254885,-4.715958,0.4530574,-0.1796391,0.3179614,0.9514922,24.84854,-0.5906861,-41.30068,1028.927
0.431812286,-0.1022803,-4.775411,0.6970958,-0.1757181,0.3150832,0.9601055,24.84854,-0.5906861,-41.30068,1028.927
0.434294224,-0.2254885,-4.775411,0.6360862,-0.1713315,0.3223501,0.9568013,24.84854,-0.5906861,-41.30068,1028.927
0.436775684,-0.2254885,-4.834865,0.5140669,-0.1728083,0.3183868,0.9442903,24.84854,-0.5906861,-41.30068,1028.929
0.439257622,-0.4103008,-4.775411,0.4530574,-0.173776,0.3218586,0.9548793,24.84854,-0.5906861,-41.30068,1028.929
0.441738605,-0.3486967,-4.656504,0.6360862,-0.1752401,0.3174717,0.9529247,24.84854,-0.5906861,-41.30068,1028.929
0.444221020,-0.2870926,-4.715958,0.6970958,-0.1728026,0.31695,0.9481184,24.85837,-2.838697,-41.27954,1028.929
0.446702003,-0.1638844,-4.59705,0.5750765,-0.173279,0.3121256,0.9547993,24.85837,-2.838697,-41.27954,1028.929
0.449183941,-0.1022803,-4.478142,0.6360862,-0.1752402,0.3169823,0.9524406,24.85837,-2.838697,-41.27954,1028.929
0.451665401,-0.1022803,-4.418688,0.5750765,-0.1781775,0.317448,0.947647,24.85837,-2.838697,-41.27954,1028.929
0.454147339,-0.1022803,-4.537596,0.6970958,-0.1781737,0.3189335,0.9519789,24.85837,-2.838697,-41.27954,1028.929
0.456628799,-0.2254885,-4.656504,0.6970958,-0.1791497,0.3189419,0.9529399,24.85837,-2.838697,-41.27954,1028.929
0.459110737,-0.1022803,-4.59705,0.6970958,-0.1791441,0.3150607,0.9548281,24.85837,-2.838697,-41.27954,1028.929
0.461592674,-0.04067625,-4.418688,0.6360862,-0.1796309,0.3189805,0.9591805,24.85837,-2.838697,-41.27954,1028.929
0.464074135,-0.2254885,-4.775411,0.7581053,-0.1762175,0.3184504,0.9534134,24.85837,-2.838697,-41.27954,1028.929
0.466556072,-0.1022803,-4.656504,0.8801246,-0.1771934,0.3184587,0.9543744,24.85837,-2.838697,-41.27954,1028.929
0.469037533,-0.04067625,-4.59705,0.8191149,-0.1776859,0.3203949,0.9524705,24.85837,-2.838697,-41.27954,1028.929
0.471519470,-0.2870926,-4.478142,0.6360862,-0.1801136,0.3199894,0.9649491,24.85837,-2.838697,-41.27954,1028.929
0.474000454,-0.2870926,-4.59705,0.3920478,-0.182063,0.3151316,0.965391,24.85837,-2.838697,-41.27954,1028.929
0.476482868,-0.2870926,-4.715958,0.5750765,-0.1762117,0.3189685,0.9586977,24.85837,-2.838697,-41.27954,1028.924
0.478963852,-0.2254885,-4.59705,0.7581053,-0.1781697,0.3174881,0.9543672,24.85837,-2.838697,-41.27954,1028.924
0.481445789,-0.3486967,-4.418688,0.6360862,-0.1811013,0.3140726,0.9514617,24.85837,-2.838697,-41.27954,1028.924
0.483927250,-0.1638844,-4.59705,0.5750765,-0.1772004,0.3194003,0.9491021,24.85837,-2.838697,-41.27954,1028.924
0.486409187,-0.2254885,-4.537596,0.7581053,-0.1796411,0.3184394,0.9500562,24.85837,-2.838697,-41.27954,1028.924
0.488890648,-0.2870926,-4.59705,0.6970958,-0.1786543,0.3135996,0.9548157,24.85837,-2.838697,-41.27954,1028.924
0.491372585,-0.1638844,-4.59705,0.6360862,-0.1771913,0.3160258,0.9543545,24.85837,-2.838697,-41.27954,1028.924
0.493854046,-0.1638844,-4.715958,0.7581053,-0.1757218,0.314087,0.9562573,24.84854,-0.5906861,-41.30068,1028.924
0.496335983,-0.1638844,-4.537596,0.7581053,-0.1781678,0.3140763,0.9533792,24.84854,-0.5906861,-41.30068,1028.924
0.498817921,-0.1022803,-4.478142,0.7581053,-0.1732862,0.3125777,0.9490431,24.84854,-0.5906861,-41.30068,1028.924
0.501300335,-0.1638844,-4.478142,0.6970958,-0.1718151,0.3101581,0.951902,24.84854,-0.5906861,-41.30068,1028.924
0.503781319,-0.1638844,-4.59705,0.6970958,-0.1752357,0.3091854,0.9504569,24.84854,-0.5906861,-41.30068,1028.924
0.506262302,-0.1638844,-4.715958,0.9411342,-0.174257,0.3111464,0.9533521,24.84854,-0.5906861,-41.30068,1028.924
0.508744240,0.02092784,-4.59705,0.8801246,-0.1679016,0.3067531,0.953791,24.84854,-0.5906861,-41.30068,1028.924
0.511225700,0.02092784,-4.537596,0.6360862,-0.1718227,0.3150068,0.9490618,24.84854,-0.5906861,-41.30068,1028.924
0.513707638,-0.1638844,-4.537596,0.6360862,-0.1713302,0.3150255,0.9524214,24.84854,-0.5906861,-41.30068,1028.924
0.516189098,0.08253193,-4.59705,0.8191149,-0.1674131,0.3126166,0.9581585,24.84854,-0.5906861,-41.30068,1028.927
0.518671036,0.02092784,-4.478142,1.063153,-0.1683921,0.3135867,0.9572073,24.84854,-0.5906861,-41.30068,1028.927
0.521152496,-0.1022803,-4.478142,0.9411342,-0.172773,0.3068379,0.9657956,24.84854,-0.5906861,-41.30068,1028.927
0.523634434,-0.1638844,-4.59705,1.002144,-0.1718039,0.3102155,0.9615024,24.84854,-0.5906861,-41.30068,1028.927
0.526116371,-0.04067625,-4.418688,1.063153,-0.1674087,0.3121501,0.9615147,24.84854,-0.5906861,-41.30068,1028.927
0.528603077,0.02092784,-4.418688,1.002144,-0.1678962,0.3102022,0.9610191,24.84854,-0.5906861,-41.30068,1028.927
0.531079769,0.02092784,-4.359234,0.9411342,-0.1742473,0.3077748,0.9590844,24.84854,-0.5906861,-41.30068,1028.927
0.533560753,0.144136,-4.240326,0.9411342,-0.1727748,0.3102497,0.9667835,24.84854,-0.5906861,-41.30068,1028.927
0.536043167,0.144136,-4.180872,1.002144,-0.1766898,0.3043608,0.9566585,24.84854,-0.5906861,-41.30068,1028.927
0.538524151,0.2057401,-4.418688,1.002144,-0.1757083,0.3043812,0.9604979,24.84854,-0.5906861,-41.30068,1028.927
0.541006088,0.144136,-4.359234,1.002144,-0.1781485,0.307333,0.964844,24.84854,-0.5906861,-41.30068,1028.927
0.543487549,0.2057401,-4.359234,0.9411342,-0.1747329,0.3043699,0.959057,24.45599,-0.5965956,-41.67386,1028.927
0.545969486,0.2057401,-4.359234,0.8801246,-0.1742418,0.3053591,0.9619446,24.45599,-0.5965956,-41.67386,1028.927
0.548450947,0.144136,-4.240326,1.063153,-0.1761921,0.3034294,0.9638505,24.45599,-0.5965956,-41.67386,1028.927
0.550932884,0.2057401,-4.29978,1.002144,-0.1776658,0.308279,0.9605313,24.45599,-0.5965956,-41.67386,1028.927
0.553414345,0.144136,-4.418688,1.124163,-0.1732636,0.3053622,0.9629039,24.45599,-0.5965956,-41.67386,1028.927
0.555896282,0.144136,-4.29978,1.185173,-0.16985,0.3072765,0.9590768,24.45599,-0.5965956,-41.67386,1028.929
0.558378220,0.4521565,-4.29978,1.002144,-0.1737714,0.3125962,0.9519235,24.45599,-0.5965956,-41.67386,1028.929
0.560859680,0.3289483,-4.359234,1.063153,-0.1708412,0.316982,0.9543571,24.45599,-0.5965956,-41.67386,1028.929
0.563341617,0.2057401,-4.061965,1.002144,-0.1639961,0.3165031,0.9586675,24.45599,-0.5965956,-41.67386,1028.929
0.565822601,0.2673442,-4.180872,1.002144,-0.1571647,0.3154658,0.9509735,24.45599,-0.5965956,-41.67386,1028.929
0.568305492,0.2673442,-4.121418,1.002144,-0.1527703,0.3227729,0.9543897,24.45599,-0.5965956,-41.67386,1028.929
0.570785999,0.3905524,-4.002511,1.002144,-0.1478864,0.3251958,0.9548854,24.45599,-0.5965956,-41.67386,1028.929
0.573267937,0.3905524,-4.061965,1.124163,-0.1400754,0.332966,0.9559027,24.45599,-0.5965956,-41.67386,1028.929
0.575749397,0.2673442,-4.002511,1.002144,-0.1268822,0.3363657,0.9607196,24.45599,-0.5965956,-41.67386,1028.929
0.578231335,0.2673442,-3.824149,0.8191149,-0.1288334,0.3407846,0.9665173,24.45599,-0.5965956,-41.67386,1028.929
0.580712795,0.144136,-3.586333,0.6970958,-0.1288331,0.3358987,0.9631174,24.45599,-0.5965956,-41.67386,1028.929
0.585676193,0.02092784,-3.170156,0.5140669,-0.1229812,0.3460927,0.961756,24.45599,-0.5965956,-41.67386,1028.929
0.585676193,0.02092784,-3.170156,0.5140669,-0.1229812,0.3460927,0.961756,24.45599,-0.5965956,-41.67386,1028.929
0.590640068,0.144136,-2.753978,0.3310382,-0.1180912,0.3465921,0.9660761,24.45599,-0.5965956,-41.67386,1028.929
0.590640068,0.144136,-2.753978,0.3310382,-0.1180912,0.3465921,0.9660761,24.45599,-0.5965956,-41.67386,1028.929
0.595603466,-0.04067625,-2.278347,0.1480094,-0.1249306,0.341235,0.9621978,24.83767,-1.34718,-41.677,1028.931
0.598084450,0.144136,-2.040532,0.08699975,-0.1239532,0.3383014,0.9602531,24.83767,-1.34718,-41.677,1028.931
0.600566387,0.08253193,-2.040532,-0.09602907,-0.124934,0.3470826,0.9636856,24.83767,-1.34718,-41.677,1028.931
0.603047848,-0.04067625,-1.743262,-0.4010771,-0.1298112,0.3383399,0.9640982,24.83767,-1.34718,-41.677,1028.931
0.605529785,-0.1638844,-1.445993,-0.5230963,-0.1337309,0.3475782,0.9612969,24.83767,-1.34718,-41.677,1028.931
0.608011246,0.02092784,-1.327085,-0.584106,-0.1327482,0.3417394,0.9617284,24.83767,-1.34718,-41.677,1028.931
0.610493183,-0.04067625,-1.208177,-0.7061251,-0.1376334,0.3383321,0.9593045,24.83767,-1.34718,-41.677,1028.931
0.612974644,-0.1638844,-1.089269,-0.889154,-0.1464365,0.3407511,0.9530915,24.83767,-1.34718,-41.677,1028.931
0.615456581,-0.1638844,-0.9703615,-0.9501636,-0.1459403,0.3403005,0.9593273,24.83767,-1.34718,-41.677,1028.931
0.617938518,-0.1638844,-0.8514537,-0.889154,-0.1508282,0.341278,0.9578993,24.83767,-1.34718,-41.677,1028.931
0.620419979,-0.3486967,-0.9109076,-0.9501636,-0.1513283,0.3461079,0.9516994,24.83767,-1.34718,-41.677,1028.931
0.622901916,-0.2870926,-0.7919998,-1.133192,-0.1571715,0.3349808,0.959773,24.83767,-1.34718,-41.677,1028.931
0.625382900,-0.3486967,-0.7325459,-1.255212,-0.1610787,0.334997,0.9607363,24.83767,-1.34718,-41.677,1028.931
0.627865314,-0.3486967,-0.6730919,-1.011173,-0.157669,0.3368912,0.9535491,24.83767,-1.34718,-41.677,1028.931
0.630346298,-0.2870926,-0.6730919,-1.133192,-0.1620709,0.340787,0.9521445,24.83767,-1.34718,-41.677,1028.931
0.632828236,-0.2870926,-0.613638,-1.255212,-0.1649964,0.3334931,0.9516073,24.83767,-1.34718,-41.677,1028.931
0.635309696,-0.4719049,-0.5541841,-1.56026,-0.1635246,0.3335208,0.9568863,24.83767,-1.34718,-41.677,1028.929
0.637791634,-0.4103008,-0.5541841,-1.621269,-0.1713357,0.327216,0.9568411,24.83767,-1.34718,-41.677,1028.929
0.640273094,-0.4719049,-0.613638,-1.255212,-0.1728011,0.3242889,0.9548984,24.83767,-1.34718,-41.677,1028.929
0.642755032,-0.3486967,-0.5541841,-1.43824,-0.1747534,0.3228372,0.9553681,23.76715,-1.718315,-41.64463,1028.929
0.645236969,-0.3486967,-0.4947302,-1.621269,-0.1796389,0.3184509,0.9519762,23.76715,-1.718315,-41.64463,1028.929
0.647718429,-0.4719049,-0.5541841,-1.43824,-0.1830504,0.3180135,0.9586954,23.76715,-1.718315,-41.64463,1028.929
0.650200367,-0.595113,-0.613638,-1.49925,-0.1820711,0.3160675,0.9591586,23.76715,-1.718315,-41.64463,1028.929
0.652681827,-0.4719049,-0.613638,-1.49925,-0.1864641,0.30779,0.9562145,23.76715,-1.718315,-41.64463,1028.929
0.655163765,-0.2254885,-0.8514537,-1.56026,-0.1859636,0.304918,0.9643507,23.76715,-1.718315,-41.64463,1028.929
0.657644749,-0.3486967,-0.7325459,-1.316221,-0.1850003,0.309243,0.9557453,23.76715,-1.718315,-41.64463,1028.929
0.660127163,-0.4103008,-0.9109076,-1.316221,-0.1898847,0.3029075,0.9518574,23.76715,-1.718315,-41.64463,1028.929
0.662608147,-0.2870926,-0.9109076,-1.316221,-0.1908608,0.3024263,0.9523343,23.76715,-1.718315,-41.64463,1028.929
0.665090084,-0.2870926,-0.9703615,-1.377231,-0.1942715,0.2990609,0.9575895,23.76715,-1.718315,-41.64463,1028.929
0.667571545,-0.2870926,-1.327085,-1.255212,-0.1996478,0.2966194,0.953734,23.76715,-1.718315,-41.64463,1028.929
0.670053482,-0.4719049,-1.267631,-1.072183,-0.1918278,0.2966158,0.9566076,23.76715,-1.718315,-41.64463,1028.929
0.672534943,-0.1022803,-1.327085,-1.133192,-0.1928056,0.296126,0.9556444,23.76715,-1.718315,-41.64463,1028.929
0.675016880,-0.04067625,-1.624354,-1.194202,-0.1913401,0.2936777,0.9537032,23.76715,-1.718315,-41.64463,1028.93
0.677498341,0.02092784,-1.564901,-1.072183,-0.1933003,0.2980507,0.9518205,23.76715,-1.718315,-41.64463,1028.93
0.679980755,-0.1022803,-1.624354,-1.133192,-0.1937939,0.305846,0.9533247,23.76715,-1.718315,-41.64463,1028.93
0.682462215,-0.1022803,-1.564901,-1.072183,-0.1923269,0.3029168,0.9523395,23.76715,-1.718315,-41.64463,1028.93
0.684943676,-0.04067625,-1.802716,-1.011173,-0.1933058,0.3043763,0.9518722,23.76715,-1.718315,-41.64463,1028.93
0.687425613,0.144136,-1.981078,-0.9501636,-0.1913521,0.3068127,0.9533306,23.76715,-1.718315,-41.64463,1028.93
0.689906597,0.02092784,-2.040532,-0.9501636,-0.1879351,0.3067892,0.9509276,23.76715,-1.718315,-41.64463,1028.93
0.692388534,0.02092784,-2.099986,-0.7671348,-0.1869542,0.3102272,0.9567149,24.83531,-1.348372,-41.74089,1028.93
0.694869995,-0.1022803,-2.15944,-0.889154,-0.1840223,0.3107117,0.9576764,24.83531,-1.348372,-41.74089,1028.93
0.697351932,0.02092784,-2.337801,-0.8281444,-0.1835405,0.3145858,0.9548278,24.83531,-1.348372,-41.74089,1028.93
0.699833393,0.08253193,-2.516163,-0.7061251,-0.1850054,0.3131271,0.9543371,24.83531,-1.348372,-41.74089,1028.93
0.702315330,0.08253193,-2.337801,-0.7671348,-0.1810934,0.3121579,0.956726,24.83531,-1.348372,-41.74089,1028.93
0.704796791,0.02092784,-2.397255,-0.7671348,-0.1796334,0.3160352,0.9548364,24.83531,-1.348372,-41.74089,1028.93
0.707278728,0.08253193,-2.516163,-0.889154,-0.1796371,0.316994,0.9524443,24.83531,-1.348372,-41.74089,1028.93
0.709760666,0.144136,-2.516163,-0.7671348,-0.1752373,0.3174861,0.9553248,24.83531,-1.348372,-41.74089,1028.93
0.712242126,0.2673442,-2.397255,-0.8281444,-0.1718146,0.3160258,0.95675,24.83531,-1.348372,-41.74089,1028.93
0.714724064,0.144136,-2.516163,-0.7061251,-0.1722946,0.3146047,0.9629787,24.83531,-1.348372,-41.74089,1028.931
0.717205048,0.144136,-2.456709,-0.7061251,-0.1727855,0.3121501,0.959119,24.83531,-1.348372,-41.74089,1028.931
0.719687462,0.144136,-2.456709,-0.7671348,-0.1703469,0.315544,0.9581848,24.83531,-1.348372,-41.74089,1028.931
0.722168446,0.144136,-2.575617,-0.7671348,-0.165465,0.3111144,0.9519046,24.83531,-1.348372,-41.74089,1028.931
0.724650383,0.2057401,-2.575617,-0.8281444,-0.1644831,0.3140686,0.958168,24.83531,-1.348372,-41.74089,1028.931
0.727131844,0.2057401,-2.456709,-0.889154,-0.1610698,0.3189138,0.9562848,24.83531,-1.348372,-41.74089,1028.931
0.729613781,0.08253193,-2.337801,-0.9501636,-0.1625333,0.3145299,0.9548101,24.83531,-1.348372,-41.74089,1028.931
0.732095241,0.2673442,-2.218894,-0.889154,-0.1639907,0.3140873,0.9615277,24.83531,-1.348372,-41.74089,1028.931
0.734577179,0.2057401,-2.218894,-0.9501636,-0.162526,0.3145672,0.9610504,24.83531,-1.348372,-41.74089,1028.931
0.737059116,0.2673442,-2.218894,-1.133192,-0.1605705,0.3155466,0.9629768,24.83531,-1.348372,-41.74089,1028.931
0.739542961,0.2673442,-2.337801,-1.133192,-0.1620342,0.3101838,0.9605342,24.83531,-1.348372,-41.74089,1028.931
0.742027283,0.3289483,-2.278347,-1.133192,-0.1639929,0.3121209,0.9581516,24.08014,-1.720547,-41.71701,1028.931
0.744503975,0.3289483,-2.15944,-1.072183,-0.1674209,0.3164864,0.9543502,24.08014,-1.720547,-41.71701,1028.931
0.746985912,0.2673442,-2.218894,-1.011173,-0.1640002,0.3159935,0.9548233,24.08014,-1.720547,-41.71701,1028.931
0.749466896,0.3289483,-2.099986,-1.072183,-0.1625315,0.3169829,0.9581902,24.08014,-1.720547,-41.71701,1028.931
0.751949310,0.2057401,-2.040532,-1.194202,-0.1674154,0.320425,0.9620622,24.08014,-1.720547,-41.71701,1028.931
0.754430294,0.3905524,-1.981078,-1.133192,-0.1620465,0.3203848,0.9577376,24.08014,-1.720547,-41.71701,1028.931
0.756912231,0.3289483,-1.921624,-1.194202,-0.1659651,0.3213196,0.9495885,24.08014,-1.720547,-41.71701,1028.927
0.759393692,0.4521565,-2.040532,-1.194202,-0.1674238,0.3223369,0.956318,24.08014,-1.720547,-41.71701,1028.927
0.761875629,0.3905524,-1.921624,-1.316221,-0.1669361,0.3193989,0.9534136,24.08014,-1.720547,-41.71701,1028.927
0.764360905,0.3289483,-1.86217,-1.194202,-0.1649788,0.3223418,0.958236,24.08014,-1.720547,-41.71701,1028.927
0.766839027,0.3289483,-2.040532,-1.316221,-0.166447,0.3233103,0.9568052,24.08014,-1.720547,-41.71701,1028.927
0.769320965,0.3905524,-1.921624,-1.49925,-0.1649798,0.3247805,0.9592159,24.08014,-1.720547,-41.71701,1028.927
0.771802425,0.2673442,-2.040532,-1.377231,-0.1659551,0.3194163,0.9567729,24.08014,-1.720547,-41.71701,1028.927
0.774284363,0.2057401,-1.981078,-1.316221,-0.1654712,0.3208576,0.9539044,24.08014,-1.720547,-41.71701,1028.927
0.776765823,0.2673442,-1.86217,-1.43824,-0.1664564,0.3296158,0.9534968,24.08014,-1.720547,-41.71701,1028.927
0.779247761,0.2673442,-1.981078,-1.255212,-0.1664509,0.3272001,0.9563569,24.08014,-1.720547,-41.71701,1028.927
0.781728744,0.144136,-1.981078,-1.072183,-0.1659597,0.3247688,0.9568167,24.08014,-1.720547,-41.71701,1028.927
0.784210682,0.4521565,-1.683808,-1.316221,-0.1679087,0.3174694,0.9557987,24.08014,-1.720547,-41.71701,1028.927
0.786692142,0.2673442,-1.743262,-1.316221,-0.1659576,0.3184259,0.9538849,24.08014,-1.720547,-41.71701,1028.927
0.789174080,0.2057401,-1.802716,-1.316221,-0.1659645,0.3257219,0.9534645,24.08014,-1.720547,-41.71701,1028.927
0.791655540,0.2057401,-1.624354,-1.072183,-0.1649805,0.3242882,0.958252,23.79053,-0.5799967,-40.88846,1028.927
0.794137478,0.08253193,-1.802716,-1.377231,-0.1664496,0.3218305,0.9534331,23.79053,-0.5799967,-40.88846,1028.927
0.796619415,0.08253193,-1.921624,-1.377231,-0.166443,0.3174655,0.9557974,23.79053,-0.5799967,-40.88846,1028.928
0.799100876,0.144136,-1.743262,-1.072183,-0.1644915,0.3179354,0.9538797,23.79053,-0.5799967,-40.88846,1028.928
0.801582813,0.2057401,-1.802716,-1.133192,-0.1654729,0.3267138,0.9568322,23.79053,-0.5799967,-40.88846,1028.928
0.804064274,0.2673442,-1.802716,-1.133192,-0.1605844,0.329649,0.9616522,23.79053,-0.5799967,-40.88846,1028.928
0.806546211,0.144136,-1.743262,-1.255212,-0.1630244,0.3213606,0.9577464,23.79053,-0.5799967,-40.88846,1028.928
0.809027195,0.2057401,-1.624354,-1.255212,-0.1659603,0.3247659,0.9563367,23.79053,-0.5799967,-40.88846,1028.928
0.811509609,0.144136,-1.683808,-1.133192,-0.1693788,0.3252702,0.9577836,23.79053,-0.5799967,-40.88846,1028.928
0.813990593,0.08253193,-1.802716,-1.072183,-0.1640054,0.327208,0.9587551,23.79053,-0.5799967,-40.88846,1028.928
0.816477299,0.144136,-1.743262,-1.072183,-0.1649651,0.3175247,0.9663565,23.79053,-0.5799967,-40.88846,1028.928
0.818953991,-0.04067625,-1.624354,-1.011173,-0.1683979,0.3228433,0.9592029,23.79053,-0.5799967,-40.88846,1028.928
0.821435928,0.08253193,-1.564901,-1.194202,-0.1693848,0.3237731,0.9515314,23.79053,-0.5799967,-40.88846,1028.928
0.823917389,0.144136,-1.683808,-1.072183,-0.1703559,0.3252728,0.9577844,23.79053,-0.5799967,-40.88846,1028.928
0.826399326,0.08253193,-1.86217,-0.9501636,-0.1669373,0.3208586,0.9534255,23.79053,-0.5799967,-40.88846,1028.928
0.828881264,-0.04067625,-1.86217,-0.9501636,-0.1713295,0.3155179,0.9533855,23.79053,-0.5799967,-40.88846,1028.928
0.831362724,0.02092784,-1.683808,-0.9501636,-0.171328,0.316992,0.9557976,23.79053,-0.5799967,-40.88846,1028.928
0.833844662,-0.04067625,-1.743262,-0.9501636,-0.1718108,0.3136015,0.9581701,23.79053,-0.5799967,-40.88846,1028.928
0.836326122,-0.04067625,-1.743262,-0.7671348,-0.1781747,0.3174623,0.950047,23.79053,-0.5799967,-40.88846,1028.929
0.838811874,0.08253193,-1.624354,-0.8281444,-0.1781718,0.3140562,0.9500191,23.79053,-0.5799967,-40.88846,1028.929
0.841289043,0.02092784,-1.624354,-0.7671348,-0.1776759,0.3121373,0.9548029,23.38475,-1.343593,-41.70186,1028.929
0.843771458,0.02092784,-1.802716,-0.5230963,-0.1801151,0.3165603,0.9610811,23.38475,-1.343593,-41.70186,1028.929
0.846252441,0.02092784,-1.86217,-0.5230963,-0.1806081,0.3165387,0.9572414,23.38475,-1.343593,-41.70186,1028.929
0.848734379,-0.04067625,-1.981078,-0.4620867,-0.1859849,0.3145837,0.9533898,23.38475,-1.343593,-41.70186,1028.929
0.851215839,-0.1638844,-1.921624,-0.1570387,-0.1811076,0.3155066,0.9471534,23.38475,-1.343593,-41.70186,1028.929
0.853697777,-0.2254885,-2.15944,-0.2180483,-0.1825704,0.3194347,0.9524667,23.38475,-1.343593,-41.70186,1028.929
0.856179714,-0.1022803,-2.218894,0.02599015,-0.1850022,0.3146098,0.9581891,23.38475,-1.343593,-41.70186,1028.929
0.858661175,-0.3486967,-2.099986,0.08699975,-0.190382,0.3136165,0.9524254,23.38475,-1.343593,-41.70186,1028.929
0.861143112,-0.2254885,-2.397255,0.209019,-0.1903864,0.3179929,0.9519812,23.38475,-1.343593,-41.70186,1028.929
0.863624573,-0.2254885,-2.397255,0.3310382,-0.1894094,0.3194558,0.9529524,23.38475,-1.343593,-41.70186,1028.929
0.866106510,-0.2254885,-2.516163,0.4530574,-0.1859887,0.317008,0.9519696,23.38475,-1.343593,-41.70186,1028.929
0.868587971,-0.1638844,-2.635071,0.5140669,-0.1869617,0.3116553,0.9514467,23.38475,-1.343593,-41.70186,1028.929
0.871069908,-0.3486967,-2.753978,0.6970958,-0.1854945,0.3111706,0.9524015,23.38475,-1.343593,-41.70186,1028.929
0.873550892,-0.2870926,-2.813432,0.8801246,-0.1894101,0.3150536,0.9490765,23.38475,-1.343593,-41.70186,1028.929
0.876032829,-0.2870926,-2.813432,1.063153,-0.1874634,0.3203865,0.9467185,23.38475,-1.343593,-41.70186,1028.926
0.878514290,-0.2254885,-2.813432,1.002144,-0.1864863,0.3223388,0.9481736,23.38475,-1.343593,-41.70186,1028.926
0.880996227,-0.2254885,-2.872886,1.063153,-0.1820822,0.3184545,0.9514983,23.38475,-1.343593,-41.70186,1028.926
0.883478165,-0.2870926,-3.110702,1.246182,-0.1845225,0.3150521,0.9509924,23.38475,-1.343593,-41.70186,1028.926
0.885959625,-0.2870926,-3.110702,1.368201,-0.1840348,0.3199338,0.953912,23.38475,-1.343593,-41.70186,1028.926
0.888441563,-0.2254885,-3.110702,1.368201,-0.1855022,0.3213946,0.9534451,24.09664,-1.712198,-41.26974,1028.926
0.890923023,-0.2254885,-3.407971,1.368201,-0.1840457,0.3247652,0.9481915,24.09664,-1.712198,-41.26974,1028.926
0.893404961,-0.4719049,-3.407971,1.55123,-0.1796419,0.319902,0.9505482,24.09664,-1.712198,-41.26974,1028.926
0.895886421,-0.533509,-3.407971,1.856278,-0.1772105,0.3213036,0.9419177,24.09664,-1.712198,-41.26974,1028.926
0.898368359,-0.533509,-3.407971,1.917288,-0.1781788,0.3247726,0.9520267,24.09664,-1.712198,-41.26974,1028.926
0.900849342,-0.4719049,-3.705241,1.856278,-0.1742616,0.3223637,0.9577638,24.09664,-1.712198,-41.26974,1028.926
0.903331757,-0.533509,-3.586333,1.856278,-0.1776824,0.3228565,0.9572906,24.09664,-1.712198,-41.26974,1028.926
0.905812740,-0.6567171,-3.645787,2.161326,-0.1762166,0.323342,0.9577734,24.09664,-1.712198,-41.26974,1028.926
0.908294678,-0.6567171,-3.526879,2.100317,-0.1752349,0.319942,0.9591847,24.09664,-1.712198,-41.26974,1028.926
0.910776615,-0.7183212,-3.645787,2.222336,-0.173277,0.3175124,0.9606032,24.09664,-1.712198,-41.26974,1028.926
0.913258076,-0.7183212,-3.943057,2.405365,-0.1723019,0.3204322,0.9611064,24.09664,-1.712198,-41.26974,1028.926
0.915740013,-0.595113,-3.943057,2.466374,-0.1708372,0.3189571,0.9591731,24.09664,-1.712198,-41.26974,1028.927
0.918221474,-0.7799253,-4.002511,2.466374,-0.1679088,0.3208899,0.9582266,24.09664,-1.712198,-41.26974,1028.927
0.920703411,-0.7799253,-3.764695,2.527384,-0.1703521,0.3208935,0.9577485,24.09664,-1.712198,-41.26974,1028.927
0.923184872,-0.595113,-3.824149,2.771422,-0.1732771,0.3189779,0.9615753,24.09664,-1.712198,-41.26974,1028.927
0.925666809,-0.533509,-3.824149,2.649403,-0.1693703,0.3155385,0.9577039,24.09664,-1.712198,-41.26974,1028.927
0.928148270,-0.6567171,-3.883603,2.649403,-0.1644847,0.3165044,0.9586679,24.09664,-1.712198,-41.26974,1028.927
0.933111191,-0.7183212,-3.883603,2.832432,-0.1693717,0.3165088,0.957232,24.09664,-1.712198,-41.26974,1028.927
0.935593605,-0.7799253,-3.943057,2.832432,-0.1654682,0.3213614,0.9567884,24.09664,-1.712198,-41.26974,1028.927
0.938074589,-0.7799253,-3.883603,2.954451,-0.159599,0.3135604,0.9567199,24.0785,-1.345879,-41.72053,1028.927
0.940556526,-0.8415294,-4.002511,2.954451,-0.1610604,0.3126083,0.9595932,24.0785,-1.345879,-41.72053,1028.927
0.943038464,-0.7183212,-4.002511,3.13748,-0.1571461,0.3082301,0.9614742,24.0785,-1.345879,-41.72053,1028.927
0.945519924,-0.7799253,-4.002511,3.259499,-0.1590973,0.3048293,0.961448,24.0785,-1.345879,-41.72053,1028.927
0.948001862,-0.6567171,-3.764695,3.320509,-0.1561784,0.3145331,0.958165,24.0785,-1.345879,-41.72053,1028.927
0.950483322,-0.7799253,-3.824149,3.320509,-0.1551998,0.3120947,0.9576642,24.0785,-1.345879,-41.72053,1028.927
0.952965260,-0.8415294,-3.764695,3.442528,-0.1517812,0.3135453,0.9576733,24.0785,-1.345879,-41.72053,1028.927
0.955446720,-0.6567171,-3.764695,3.503538,-0.1498292,0.317928,0.9591475,24.0785,-1.345879,-41.72053,1028.925
0.957928658,-0.7183212,-3.705241,3.442528,-0.1473746,0.3126063,0.965342,24.0785,-1.345879,-41.72053,1028.925
0.960410118,-0.7183212,-3.586333,3.503538,-0.1483559,0.3174748,0.9653826,24.0785,-1.345879,-41.72053,1028.925
0.962892056,-0.595113,-3.705241,3.503538,-0.1439642,0.311083,0.9562068,24.0785,-1.345879,-41.72053,1028.925
0.965373039,-0.6567171,-3.764695,3.503538,-0.1469019,0.3198551,0.957241,24.0785,-1.345879,-41.72053,1028.925
0.967854977,-0.6567171,-3.407971,3.747576,-0.1449407,0.3228181,0.9654235,24.0785,-1.345879,-41.72053,1028.925
0.970336437,-0.7183212,-3.348517,3.808586,-0.140541,0.313046,0.96054,24.0785,-1.345879,-41.72053,1028.925
0.972818375,-0.6567171,-3.348517,3.747576,-0.1346841,0.3193561,0.9605868,24.0785,-1.345879,-41.72053,1028.925
0.975300312,-0.7183212,-3.170156,3.869595,-0.1356583,0.3135081,0.9586199,24.0785,-1.345879,-41.72053,1028.925
0.977781773,-0.7183212,-3.110702,3.869595,-0.1346758,0.3130448,0.9629353,24.0785,-1.345879,-41.72053,1028.925
0.980263710,-0.7183212,-2.872886,3.930605,-0.1380975,0.3218411,0.9678099,24.0785,-1.345879,-41.72053,1028.925
0.982745171,-0.7799253,-2.813432,3.869595,-0.1405464,0.3257259,0.9654437,24.0785,-1.345879,-41.72053,1028.925
0.985227108,-0.7799253,-2.753978,3.869595,-0.1351678,0.3203592,0.9653955,24.0785,-1.345879,-41.72053,1028.925
0.987708569,-0.595113,-2.516163,3.869595,-0.1327319,0.3203183,0.9596332,24.06108,-0.603698,-42.11095,1028.925
0.990190506,-0.4719049,-2.516163,3.869595,-0.1341947,0.3222914,0.9634904,24.06108,-0.603698,-42.11095,1028.925
0.992671490,-0.533509,-2.397255,3.991615,-0.1341927,0.321324,0.9644426,24.06108,-0.603698,-42.11095,1028.925
0.995153904,-0.6567171,-2.337801,3.869595,-0.1302859,0.3217945,0.9634832,24.06108,-0.603698,-42.11095,1028.926
0.997634888,-0.7183212,-2.337801,3.991615,-0.1288178,0.3227809,0.96637,24.06108,-0.603698,-42.11095,1028.926
1.000116825,-0.7799253,-2.218894,4.113634,-0.1312525,0.3154973,0.9677524,24.06108,-0.603698,-42.11095,1028.926
1.002598763,-0.595113,-1.981078,3.930605,-0.1283237,0.3228083,0.9711698,24.06108,-0.603698,-42.11095,1028.926
1.005080223,-0.533509,-1.802716,3.991615,-0.1322348,0.3228044,0.9687731,24.06108,-0.603698,-42.11095,1028.926
1.007562160,-0.6567171,-1.802716,3.991615,-0.1307783,0.3203102,0.9591514,24.06108,-0.603698,-42.11095,1028.926
1.010043621,-0.7183212,-1.564901,3.869595,-0.1283292,0.3188697,0.9634576,24.06108,-0.603698,-42.11095,1028.926
1.012525558,-0.7799253,-1.505447,3.869595,-0.1283203,0.3150057,0.968226,24.06108,-0.603698,-42.11095,1028.926
1.015007019,-0.7799253,-1.386539,3.930605,-0.1239313,0.3208188,0.9658701,24.06108,-0.603698,-42.11095,1028.926
1.017488956,-0.7183212,-1.386539,4.052624,-0.1297963,0.3198439,0.9629869,24.06108,-0.603698,-42.11095,1028.926
1.019970417,-0.533509,-1.208177,3.808586,-0.1293088,0.315927,0.9591144,24.06108,-0.603698,-42.11095,1028.926
1.022452354,-0.533509,-1.029815,3.808586,-0.1273518,0.3222905,0.9663648,24.06108,-0.603698,-42.11095,1028.926
1.024933338,-0.6567171,-0.9703615,3.930605,-0.1229598,0.3207874,0.961069,24.06108,-0.603698,-42.11095,1028.926
1.027415752,-0.533509,-0.7325459,3.869595,-0.12979,0.31841,0.9672951,24.06108,-0.603698,-42.11095,1028.926
1.029896736,-0.595113,-0.5541841,3.808586,-0.126374,0.3149604,0.9615042,24.06108,-0.603698,-42.11095,1028.926
1.032378673,-0.7799253,-0.4947302,3.686567,-0.123939,0.3173581,0.9567218,24.06108,-0.603698,-42.11095,1028.926
1.034860611,-0.6567171,-0.2569146,3.686567,-0.1224641,0.3164241,0.9639129,24.06108,-0.603698,-42.11095,1028.924
1.037342071,-0.533509,-0.1974607,3.564547,-0.1219882,0.3212456,0.956752,24.07686,-0.9712101,-41.72405,1028.924
1.039826870,-0.533509,-0.0785529,3.564547,-0.1239359,0.3183514,0.9600899,24.07686,-0.9712101,-41.72405,1028.924
1.042310714,-0.4103008,-0.019099,3.625557,-0.1254066,0.3202844,0.957227,24.07686,-0.9712101,-41.72405,1028.924
1.044787407,-0.533509,0.2187166,3.625557,-0.1244216,0.3164121,0.9610344,24.07686,-0.9712101,-41.72405,1028.924
1.047268867,-0.595113,0.3376244,3.564547,-0.1229554,0.316411,0.9615132,24.07686,-0.9712101,-41.72405,1028.924
1.049750805,-0.4719049,0.4565322,3.686567,-0.1258903,0.3134677,0.9562116,24.07686,-0.9712101,-41.72405,1028.924
1.052232265,-0.4719049,0.6943479,3.686567,-0.1229605,0.3202951,0.960105,24.07686,-0.9712101,-41.72405,1028.924
1.054714203,-0.4103008,0.7538018,3.503538,-0.1214877,0.3159291,0.9629481,24.07686,-0.9712101,-41.72405,1028.924
1.057196140,-0.4719049,0.8727096,3.320509,-0.1244232,0.3208028,0.9629903,24.07686,-0.9712101,-41.72405,1028.924
1.059677124,-0.3486967,0.9321635,3.381518,-0.1263853,0.3222333,0.9572437,24.07686,-0.9712101,-41.72405,1028.924
1.062159538,-0.4103008,1.229433,3.259499,-0.1283364,0.3193219,0.9577014,24.07686,-0.9712101,-41.72405,1028.924
1.064640522,-0.4719049,1.348341,3.13748,-0.1288265,0.3237139,0.9596577,24.07686,-0.9712101,-41.72405,1028.924
1.067122459,-0.533509,1.229433,3.320509,-0.1278479,0.3232305,0.960613,24.07686,-0.9712101,-41.72405,1028.924
1.069603920,-0.533509,1.586156,3.19849,-0.1283336,0.3232461,0.9630135,24.07686,-0.9712101,-41.72405,1028.924
1.072085857,-0.2870926,1.64561,3.259499,-0.1307783,0.3222651,0.9606074,24.07686,-0.9712101,-41.72405,1028.924
1.074567318,-0.2870926,1.823972,3.259499,-0.1322513,0.3256522,0.9567964,24.07686,-0.9712101,-41.72405,1028.927
1.077049255,-0.4103008,1.94288,3.259499,-0.1317605,0.3237074,0.9572601,24.07686,-0.9712101,-41.72405,1028.927
1.079530716,-0.3486967,2.002334,3.07647,-0.1273638,0.3251612,0.9582284,24.07686,-0.9712101,-41.72405,1028.927
1.082012653,-0.3486967,1.94288,3.015461,-0.1322496,0.3276157,0.9596924,24.07686,-0.9712101,-41.72405,1028.927
1.084493637,-0.3486967,2.240149,3.015461,-0.1332257,0.3232247,0.9572574,24.07686,-0.9712101,-41.72405,1028.927
1.086976051,-0.2870926,2.240149,3.015461,-0.1376182,0.320815,0.9591612,23.74902,-1.351996,-42.09542,1028.927
1.089462280,-0.1638844,2.418511,3.015461,-0.1385966,0.3203224,0.957718,23.74902,-1.351996,-42.09542,1028.927
1.091938972,-0.2254885,2.537419,2.832432,-0.1420218,0.3247021,0.9563166,23.74902,-1.351996,-42.09542,1028.927
1.094420910,-0.2254885,2.596873,2.771422,-0.1361523,0.32179,0.960128,23.74902,-1.351996,-42.09542,1028.927
1.096902370,-0.2254885,2.656327,2.832432,-0.1342029,0.3227379,0.9567742,23.74902,-1.351996,-42.09542,1028.927
1.099384308,-0.3486967,2.775235,2.710413,-0.1420213,0.324705,0.9567966,23.74902,-1.351996,-42.09542,1028.927
1.101865768,-0.3486967,2.775235,2.771422,-0.142505,0.3198434,0.9572373,23.74902,-1.351996,-42.09542,1028.927
1.104347706,-0.2254885,2.953597,2.832432,-0.1425107,0.3256795,0.9568051,23.74902,-1.351996,-42.09542,1028.927
1.106829166,-0.2870926,3.01305,2.405365,-0.1420186,0.322275,0.9572568,23.74902,-1.351996,-42.09542,1028.927
1.109311104,-0.3486967,3.01305,2.344355,-0.1420242,0.3242012,0.9539126,23.74902,-1.351996,-42.09542,1028.927
1.111792564,-0.2870926,3.131958,2.405365,-0.1454404,0.3252065,0.9577635,23.74902,-1.351996,-42.09542,1028.927
1.114274502,-0.1638844,3.191412,2.222336,-0.1444669,0.3261627,0.9553706,23.74902,-1.351996,-42.09542,1028.923
1.116755485,-0.3486967,3.31032,2.039307,-0.1400611,0.3203321,0.9586793,23.74902,-1.351996,-42.09542,1028.923
1.119237900,-0.2870926,3.369773,2.100317,-0.1444603,0.3237527,0.9591908,23.74902,-1.351996,-42.09542,1028.923
1.121719837,-0.2870926,3.429227,2.039307,-0.1454398,0.3291192,0.9611555,23.74902,-1.351996,-42.09542,1028.923
1.124200821,-0.2870926,3.488681,2.039307,-0.1459323,0.3291004,0.9577957,23.74902,-1.351996,-42.09542,1028.923
1.126687526,-0.2870926,3.429227,1.978297,-0.1439746,0.325692,0.9582463,23.74902,-1.351996,-42.09542,1028.923
1.129164219,-0.3486967,3.429227,1.856278,-0.145438,0.3276623,0.9616236,23.74902,-1.351996,-42.09542,1028.923
1.131646156,-0.2870926,3.726497,1.734259,-0.1478822,0.3261947,0.9592136,23.74902,-1.351996,-42.09542,1028.923
1.134127617,0.02092784,3.667043,1.734259,-0.1478804,0.3247378,0.9596817,23.74902,-1.351996,-42.09542,1028.923
1.136609554,-0.2254885,3.845405,1.61224,-0.1434851,0.3291169,0.9616339,24.06436,-1.353035,-42.1039,1028.923
1.139091015,-0.2870926,3.964313,1.429211,-0.1434886,0.3286102,0.9582698,24.06436,-1.353035,-42.1039,1028.923
1.141576767,-0.1638844,4.142674,1.368201,-0.1473914,0.32425,0.9596773,24.06436,-1.353035,-42.1039,1028.923
1.144054413,-0.1638844,4.023767,1.368201,-0.146905,0.3305915,0.9626087,24.06436,-1.353035,-42.1039,1028.923
1.146536350,-0.2870926,3.964313,1.185173,-0.1473933,0.3276618,0.9606651,24.06436,-1.353035,-42.1039,1028.923
1.149018287,-0.4103008,4.261582,1.063153,-0.1517874,0.3291534,0.9640409,24.06436,-1.353035,-42.1039,1028.923
1.151500225,-0.3486967,4.142674,1.124163,-0.1517862,0.3257386,0.962573,24.06436,-1.353035,-42.1039,1028.923
1.153981685,-0.1638844,4.142674,0.9411342,-0.1566742,0.3262268,0.9606609,24.06436,-1.353035,-42.1039,1028.923
1.156462669,-0.1022803,4.321036,0.8191149,-0.156185,0.3247629,0.9601687,24.06436,-1.353035,-42.1039,1028.926
1.158944607,-0.1022803,4.202128,0.6970958,-0.1576435,0.3204047,0.9630142,24.06436,-1.353035,-42.1039,1028.926
1.161426067,-0.04067625,4.38049,0.6360862,-0.1576439,0.3208913,0.9630182,24.06436,-1.353035,-42.1039,1028.926
1.163908005,-0.2254885,4.321036,0.4530574,-0.1610731,0.323296,0.9568007,24.06436,-1.353035,-42.1039,1028.926
1.166389465,-0.1638844,4.499398,0.3310382,-0.1605786,0.3223473,0.9611124,24.06436,-1.353035,-42.1039,1028.926
1.168871403,0.02092784,4.67776,0.2700286,-0.1620418,0.3208973,0.9620618,24.06436,-1.353035,-42.1039,1028.926
1.171352863,0.02092784,4.499398,0.3310382,-0.1664376,0.3170048,0.9601136,24.06436,-1.353035,-42.1039,1028.926
1.173834801,-0.1638844,4.439944,0.08699975,-0.164484,0.3228616,0.9639999,24.06436,-1.353035,-42.1039,1028.926
1.176321506,-0.1022803,4.618306,0.1480094,-0.1654682,0.3233163,0.9582444,24.06436,-1.353035,-42.1039,1028.926
1.178798199,-0.1638844,4.67776,0.08699975,-0.1737619,0.3185098,0.9644519,24.06436,-1.353035,-42.1039,1028.926
1.181280136,-0.1022803,4.499398,-0.2180483,-0.1737669,0.318484,0.9601317,24.06436,-1.353035,-42.1039,1028.926
1.183761120,-0.04067625,4.499398,-0.3400675,-0.1762177,0.3213814,0.9553574,24.06436,-1.353035,-42.1039,1028.926
1.186243057,-0.1022803,4.558852,-0.3400675,-0.1776747,0.3165424,0.9591589,23.74902,-1.351996,-42.09542,1028.926
1.188724518,-0.1638844,4.558852,-0.5230963,-0.1713291,0.3189411,0.9562934,23.74902,-1.351996,-42.09542,1028.926
1.191207886,-0.04067625,4.499398,-0.584106,-0.1737713,0.3228604,0.9596874,23.74902,-1.351996,-42.09542,1028.926
1.193692684,-0.1638844,4.439944,-0.5230963,-0.1737582,0.317551,0.966844,23.74902,-1.351996,-42.09542,1028.926
1.196169853,-0.04067625,4.202128,-0.584106,-0.1776683,0.3131535,0.9620112,23.74902,-1.351996,-42.09542,1028.928
1.198651314,0.144136,4.321036,-0.6451156,-0.1742541,0.3155601,0.9591481,23.74902,-1.351996,-42.09542,1028.928
1.201133251,-0.04067625,4.261582,-0.7061251,-0.1747441,0.3179972,0.9596485,23.74902,-1.351996,-42.09542,1028.928
1.203615188,-0.1022803,4.321036,-0.7061251,-0.1796314,0.3175121,0.9577284,23.74902,-1.351996,-42.09542,1028.928
1.206096649,0.08253193,4.261582,-1.011173,-0.1786501,0.3185085,0.9620557,23.74902,-1.351996,-42.09542,1028.928
1.208578586,0.08253193,4.321036,-1.194202,-0.17914,0.3175252,0.9601282,23.74902,-1.351996,-42.09542,1028.928
1.211060047,0.08253193,4.142674,-1.194202,-0.1771947,0.3218734,0.9558423,23.74902,-1.351996,-42.09542,1028.928
1.213541984,0.144136,4.08322,-1.316221,-0.1776773,0.3209274,0.9601548,23.74902,-1.351996,-42.09542,1028.928
1.216022968,0.08253193,4.202128,-1.377231,-0.177678,0.3184801,0.9577348,23.74902,-1.351996,-42.09542,1028.928
1.218504906,-0.1022803,4.142674,-1.377231,-0.1796315,0.3189776,0.9587005,23.74902,-1.351996,-42.09542,1028.928
1.220986366,-0.04067625,3.785951,-1.56026,-0.1820684,0.3155924,0.9610748,23.74902,-1.351996,-42.09542,1028.928
1.223468303,0.144136,3.845405,-1.621269,-0.1815893,0.3199416,0.95631,23.74902,-1.351996,-42.09542,1028.928
1.225949764,0.02092784,4.142674,-1.804298,-0.1781684,0.3199383,0.9572672,23.74902,-1.351996,-42.09542,1028.928
1.228431701,0.08253193,3.785951,-1.926317,-0.1815907,0.3228669,0.9572939,23.74902,-1.351996,-42.09542,1028.928
1.230913162,0.2057401,3.904859,-1.926317,-0.1840295,0.3189836,0.9577441,23.74902,-1.351996,-42.09542,1028.928
1.233395099,0.2057401,4.023767,-1.804298,-0.1781674,0.3174996,0.9562872,23.74902,-1.351996,-42.09542,1028.928
1.235877037,0.144136,3.904859,-2.048336,-0.1815914,0.3204196,0.9548739,24.07922,-0.9700173,-41.66016,1028.923
1.238358497,0.144136,3.785951,-2.109346,-0.1835454,0.3189593,0.9539036,24.07922,-0.9700173,-41.66016,1028.923
1.240840435,0.2057401,3.726497,-2.109346,-0.1840317,0.3150622,0.9529121,24.07922,-0.9700173,-41.66016,1028.923
1.243321419,0.08253193,3.607589,-2.292375,-0.1845204,0.3204389,0.9567965,24.07922,-0.9700173,-41.66016,1028.923
1.245803833,0.2057401,3.667043,-2.353384,-0.1830522,0.3175155,0.9567714,24.07922,-0.9700173,-41.66016,1028.923
1.248284817,0.2057401,3.785951,-2.414394,-0.1854961,0.3175162,0.9558134,24.07922,-0.9700173,-41.66016,1028.923
1.250766754,0.2057401,3.607589,-2.414394,-0.1830557,0.3170088,0.9534072,24.07922,-0.9700173,-41.66016,1028.923
1.253248215,0.3289483,3.488681,-2.353384,-0.1840376,0.3179645,0.9500559,24.07922,-0.9700173,-41.66016,1028.923
1.255730152,0.3289483,3.369773,-2.536413,-0.1850119,0.3140716,0.9495448,24.07922,-0.9700173,-41.66016,1028.923
1.258212089,0.2673442,3.607589,-2.536413,-0.1845163,0.3131287,0.9548166,24.07922,-0.9700173,-41.66016,1028.923
1.260693550,0.2057401,3.548135,-2.658432,-0.1845183,0.318006,0.9567766,24.07922,-0.9700173,-41.66016,1028.923
1.263175487,0.3289483,3.191412,-2.597423,-0.1840334,0.3189635,0.9543841,24.07922,-0.9700173,-41.66016,1028.923
1.265656948,0.3905524,3.31032,-2.597423,-0.1830628,0.3218603,0.9510469,24.07922,-0.9700173,-41.66016,1028.923
1.270620346,0.5753646,3.191412,-2.96348,-0.1840313,0.3223954,0.9587321,24.07922,-0.9700173,-41.66016,1028.923
1.273102283,0.4521565,3.191412,-2.841461,-0.1855026,0.3179713,0.9505372,24.07922,-0.9700173,-41.66016,1028.923
1.275584698,0.5137606,3.131958,-2.902471,-0.1884262,0.3155749,0.9553199,24.07922,-0.9700173,-41.66016,1028.924
1.278067589,0.4521565,3.131958,-2.902471,-0.1840381,0.3179616,0.9495758,24.07922,-0.9700173,-41.66016,1028.924
1.280551433,0.3905524,2.834689,-2.902471,-0.1874469,0.3194937,0.9601511,24.07922,-0.9700173,-41.66016,1028.924
1.283028602,0.5137606,2.834689,-3.0855,-0.1845145,0.3175366,0.9596527,24.07922,-0.9700173,-41.66016,1028.924
1.285510063,0.3905524,2.894143,-3.146509,-0.1855056,0.3233323,0.9520209,24.08086,-1.344686,-41.65664,1028.924
1.287992000,0.5137606,2.894143,-3.02449,-0.1854956,0.3189846,0.9572654,24.08086,-1.344686,-41.65664,1028.924
1.290473938,0.5753646,2.715781,-3.207519,-0.1869604,0.3180153,0.9572586,24.08086,-1.344686,-41.65664,1028.924
1.292955398,0.3905524,2.656327,-3.268528,-0.1894052,0.3184998,0.9558246,24.08086,-1.344686,-41.65664,1028.924
1.295437336,0.5137606,2.656327,-3.329538,-0.1874553,0.3214055,0.9544069,24.08086,-1.344686,-41.65664,1028.924
1.297918796,0.3905524,2.834689,-3.329538,-0.1894066,0.3194701,0.9553525,24.08086,-1.344686,-41.65664,1028.924
1.300400734,0.3289483,2.477965,-3.329538,-0.1869659,0.3204311,0.9543985,24.08086,-1.344686,-41.65664,1028.924
1.302886009,0.3905524,2.477965,-3.329538,-0.1869688,0.3199273,0.9515143,24.08086,-1.344686,-41.65664,1028.924
1.305364132,0.5753646,2.537419,-3.390548,-0.1889185,0.3219104,0.9568121,24.08086,-1.344686,-41.65664,1028.924
1.307845116,0.3905524,2.418511,-3.512567,-0.1894093,0.3199452,0.9534364,24.08086,-1.344686,-41.65664,1028.924
1.310327053,0.3905524,2.299603,-3.268528,-0.1864765,0.3233665,0.957302,24.08086,-1.344686,-41.65664,1028.924
1.312808513,0.4521565,2.299603,-3.268528,-0.1908717,0.315567,0.9529218,24.08086,-1.344686,-41.65664,1028.924
1.315290451,0.5137606,2.180696,-3.390548,-0.1918544,0.3194509,0.9510344,24.08086,-1.344686,-41.65664,1028.927
1.317772388,0.5753646,2.240149,-3.329538,-0.1879493,0.3218676,0.950091,24.08086,-1.344686,-41.65664,1028.927
1.320253849,0.3905524,2.180696,-3.390548,-0.192335,0.3136274,0.9533871,24.08086,-1.344686,-41.65664,1028.927
1.322735786,0.4521565,2.180696,-3.329538,-0.1908732,0.3199578,0.9548777,24.08086,-1.344686,-41.65664,1028.927
1.325217247,0.4521565,2.002334,-3.268528,-0.1899064,0.3252789,0.9501205,24.08086,-1.344686,-41.65664,1028.927
1.327699184,0.4521565,2.061788,-3.0855,-0.1899023,0.3179686,0.9481407,24.08086,-1.344686,-41.65664,1028.927
1.330180645,0.5137606,2.061788,-3.512567,-0.1894047,0.3165478,0.9548486,24.08086,-1.344686,-41.65664,1028.927
1.332662582,0.5137606,1.94288,-3.512567,-0.1884346,0.3194417,0.9510315,24.08086,-1.344686,-41.65664,1028.927
1.335143566,0.4521565,1.94288,-3.268528,-0.1889265,0.3213808,0.9496078,24.47341,-1.338776,-41.28345,1028.927
1.337625980,0.3289483,1.705064,-3.451557,-0.1913595,0.3141057,0.9524302,24.47341,-1.338776,-41.28345,1028.927
1.340107918,0.5753646,1.64561,-3.390548,-0.187459,0.317965,0.9486187,24.47341,-1.338776,-41.28345,1028.927
1.342588901,0.6369687,1.64561,-3.146509,-0.1850151,0.3164988,0.9486047,24.47341,-1.338776,-41.28345,1028.927
1.345070839,0.5137606,1.526703,-3.268528,-0.1850079,0.3140917,0.952905,24.47341,-1.338776,-41.28345,1028.927
1.347552299,0.5137606,1.407795,-3.268528,-0.1869686,0.3189512,0.9510263,24.47341,-1.338776,-41.28345,1028.927
1.350034237,0.5753646,1.348341,-3.207519,-0.1840383,0.3194271,0.9505479,24.47341,-1.338776,-41.28345,1028.927
1.352520943,0.3905524,1.407795,-3.146509,-0.1825737,0.317952,0.9486146,24.47341,-1.338776,-41.28345,1028.927
1.354997635,0.4521565,1.407795,-3.207519,-0.1869737,0.3203909,0.9476782,24.47341,-1.338776,-41.28345,1028.928
1.357479095,0.5137606,1.229433,-3.207519,-0.1845203,0.3170184,0.9543685,24.47341,-1.338776,-41.28345,1028.928
1.359961033,0.4521565,1.288887,-3.146509,-0.1859901,0.3179783,0.9514976,24.47341,-1.338776,-41.28345,1028.928
1.362442493,0.3905524,1.229433,-3.146509,-0.1874582,0.3169918,0.9486108,24.47341,-1.338776,-41.28345,1028.928
1.364924431,0.5137606,1.288887,-2.96348,-0.1825723,0.3208916,0.9519985,24.47341,-1.338776,-41.28345,1028.928
1.367405414,0.6369687,1.110525,-2.902471,-0.1884322,0.3179877,0.9519796,24.47341,-1.338776,-41.28345,1028.928
1.369887352,0.4521565,1.110525,-2.96348,-0.1874536,0.3175043,0.9529349,24.47341,-1.338776,-41.28345,1028.928
1.372369766,0.5137606,1.169979,-2.902471,-0.1884432,0.3228191,0.9462593,24.47341,-1.338776,-41.28345,1028.928
1.374850750,0.3905524,0.8727096,-2.902471,-0.1845281,0.3169783,0.9476483,24.47341,-1.338776,-41.28345,1028.928
1.377332687,0.5137606,0.9916174,-2.780452,-0.1820735,0.3155666,0.9567546,24.47341,-1.338776,-41.28345,1028.928
1.379814148,0.4521565,1.110525,-2.780452,-0.1830636,0.3189236,0.9481429,24.47341,-1.338776,-41.28345,1028.928
1.382296085,0.4521565,1.110525,-2.658432,-0.1825674,0.3223829,0.9572908,24.47341,-1.338776,-41.28345,1028.928
1.384777546,0.5137606,1.110525,-2.658432,-0.1835464,0.3155332,0.9505156,25.62277,-1.33536,-40.93063,1028.928
1.387259483,0.3289483,0.9916174,-2.780452,-0.188922,0.3155389,0.9490801,25.62277,-1.33536,-40.93063,1028.928
1.389740944,0.4521565,1.051071,-2.536413,-0.1855077,0.3159905,0.9447611,25.62277,-1.33536,-40.93063,1028.928
1.392222881,0.3905524,0.9916174,-2.475404,-0.1830678,0.3198796,0.9452708,25.62277,-1.33536,-40.93063,1028.928
1.394703865,0.3905524,0.8132557,-2.475404,-0.1898987,0.3170098,0.9505329,25.62277,-1.33536,-40.93063,1028.924
1.397186279,0.3905524,0.9321635,-2.414394,-0.1908677,0.3116772,0.95337,25.62277,-1.33536,-40.93063,1028.924
1.399667263,0.4521565,0.9321635,-2.292375,-0.1859864,0.3150645,0.9524337,25.62277,-1.33536,-40.93063,1028.924
1.402149200,0.3905524,0.8727096,-2.231365,-0.1845291,0.319417,0.9486282,25.62277,-1.33536,-40.93063,1028.924
1.404631615,0.3905524,0.7538018,-2.231365,-0.1859863,0.315554,0.9529178,25.62277,-1.33536,-40.93063,1028.924
1.407112598,0.5137606,0.9321635,-2.170356,-0.1884269,0.3170375,0.9558119,25.62277,-1.33536,-40.93063,1028.924
1.409594536,0.4521565,0.9321635,-2.048336,-0.1889125,0.3136327,0.9557844,25.62277,-1.33536,-40.93063,1028.924
1.412075996,0.3289483,0.6943479,-1.987327,-0.1889167,0.3184985,0.9558242,25.62277,-1.33536,-40.93063,1028.924
1.414557934,0.4521565,0.6943479,-1.865308,-0.1903844,0.3150705,0.9514774,25.62277,-1.33536,-40.93063,1028.924
1.417039394,0.2673442,0.6943479,-1.682279,-0.1908801,0.3174789,0.9471775,25.62277,-1.33536,-40.93063,1028.924
1.419521332,0.3289483,0.6943479,-1.682279,-0.1903838,0.3131184,0.9505015,25.62277,-1.33536,-40.93063,1028.924
1.422002792,0.2057401,0.57544,-1.621269,-0.1918563,0.3165084,0.9471704,25.62277,-1.33536,-40.93063,1028.924
1.424484730,0.144136,0.3970784,-1.49925,-0.1928282,0.3111614,0.9476075,25.62277,-1.33536,-40.93063,1028.924
1.426965713,0.144136,0.4565322,-1.43824,-0.1952741,0.3135951,0.9466693,25.62277,-1.33536,-40.93063,1028.924
1.429448128,0.2673442,0.57544,-1.255212,-0.1947811,0.3155717,0.951965,25.62277,-1.33536,-40.93063,1028.924
1.431930065,0.2673442,0.3970784,-1.133192,-0.194779,0.3131388,0.9519451,25.62277,-1.33536,-40.93063,1028.924
1.434411049,0.3289483,0.2187166,-1.011173,-0.1977126,0.3165555,0.9524555,24.85509,-2.08936,-41.28659,1028.925
1.436892986,0.2057401,0.04035491,-0.8281444,-0.1982013,0.3141124,0.950516,24.85509,-2.08936,-41.28659,1028.925
1.439375877,0.4521565,-0.019099,-0.8281444,-0.2001539,0.3116819,0.9500177,24.85509,-2.08936,-41.28659,1028.925
1.441856384,0.3289483,-0.0785529,-0.7061251,-0.1962485,0.3150775,0.9500422,24.85509,-2.08936,-41.28659,1028.925
1.444337845,0.144136,0.09980881,-0.584106,-0.1967358,0.3194839,0.9543987,24.85509,-2.08936,-41.28659,1028.925
1.446819782,0.08253193,-0.019099,-0.3400675,-0.197714,0.3155709,0.9505275,24.85509,-2.08936,-41.28659,1028.925
1.449301243,0.144136,-0.1380068,-0.1570387,-0.1977124,0.3175344,0.9534235,24.85509,-2.08936,-41.28659,1028.925
1.451783180,0.08253193,-0.1380068,-0.09602907,-0.1991859,0.3150538,0.9447646,24.85509,-2.08936,-41.28659,1028.925
1.454264641,-0.04067625,-0.2569146,-0.09602907,-0.2026109,0.3184575,0.9428751,24.85509,-2.08936,-41.28659,1028.925
1.456746578,0.08253193,-0.3163685,-0.09602907,-0.1982132,0.3174726,0.9428635,24.85509,-2.08936,-41.28659,1028.925
1.459228515,0.2057401,-0.4352763,0.209019,-0.1991826,0.315071,0.9476447,24.85509,-2.08936,-41.28659,1028.925
1.461709499,-0.1022803,-0.4947302,0.3310382,-0.1972246,0.3145964,0.9505191,24.85509,-2.08936,-41.28659,1028.925
1.464196205,-0.04067625,-0.5541841,0.5750765,-0.197714,0.311661,0.9476156,24.85509,-2.08936,-41.28659,1028.925
1.466672897,0.08253193,-0.8514537,0.7581053,-0.2011397,0.3126174,0.9433062,24.85509,-2.08936,-41.28659,1028.925
1.469154835,0.02092784,-0.7919998,0.6970958,-0.2011374,0.3126289,0.9452263,24.85509,-2.08936,-41.28659,1028.925
1.471636295,-0.04067625,-0.7325459,1.063153,-0.2040677,0.314108,0.9471607,24.85509,-2.08936,-41.28659,1028.925
1.474118233,-0.1022803,-0.9703615,1.002144,-0.2016258,0.3150746,0.9471667,24.85509,-2.08936,-41.28659,1028.922
1.476599693,-0.1022803,-1.148723,1.063153,-0.2006591,0.3179514,0.9404695,24.85509,-2.08936,-41.28659,1028.922
1.479081631,-0.1022803,-1.148723,1.124163,-0.2026046,0.3131137,0.9442714,24.85509,-2.08936,-41.28659,1028.922
1.481563091,0.08253193,-1.208177,1.368201,-0.2006511,0.3145711,0.9447618,24.85509,-2.08936,-41.28659,1028.922
1.484045029,0.02092784,-1.327085,1.55123,-0.2021177,0.3131037,0.9428309,25.22458,-0.5931256,-41.37475,1028.922
1.486526966,-0.1022803,-1.327085,1.734259,-0.1972273,0.3150715,0.948603,25.22458,-0.5931256,-41.37475,1028.922
1.489008427,-0.04067625,-1.505447,1.673249,-0.1957666,0.3174862,0.9462216,25.22458,-0.5931256,-41.37475,1028.922
1.491490364,-0.1022803,-1.564901,1.856278,-0.2026091,0.3170006,0.9433432,25.22458,-0.5931256,-41.37475,1028.922
1.493971348,-0.2870926,-1.802716,1.917288,-0.2001705,0.3223494,0.943865,25.22458,-0.5931256,-41.37475,1028.922
1.496453762,-0.3486967,-1.743262,2.039307,-0.1952835,0.3257655,0.9477289,25.22458,-0.5931256,-41.37475,1028.922
1.498934746,-0.2254885,-1.802716,2.161326,-0.1991875,0.3155346,0.9438084,25.22458,-0.5931256,-41.37475,1028.922
1.501416683,-0.2254885,-2.040532,2.222336,-0.1972399,0.3198943,0.9414425,25.22458,-0.5931256,-41.37475,1028.922
1.503898144,-0.2870926,-2.15944,2.344355,-0.1977285,0.3238055,0.944355,25.22458,-0.5931256,-41.37475,1028.922
1.506380081,-0.2254885,-2.218894,2.283345,-0.1977278,0.3223429,0.9438629,25.22458,-0.5931256,-41.37475,1028.922
1.508861542,-0.2870926,-2.337801,2.466374,-0.1952869,0.3257482,0.9448488,25.22458,-0.5931256,-41.37475,1028.922
1.511343479,-0.2870926,-2.397255,2.649403,-0.1918671,0.3237842,0.94339,25.22458,-0.5931256,-41.37475,1028.922
1.513825416,-0.3486967,-2.337801,2.588394,-0.1918649,0.3237956,0.94531,25.22458,-0.5931256,-41.37475,1028.922
1.516306877,-0.1638844,-2.278347,2.649403,-0.1923498,0.3247931,0.9491586,25.22458,-0.5931256,-41.37475,1028.922
1.518788814,-0.2254885,-2.575617,2.649403,-0.1899157,0.328164,0.9443842,25.22458,-0.5931256,-41.37475,1028.922
1.521270275,-0.3486967,-2.516163,2.649403,-0.1908832,0.3282153,0.9525452,25.22458,-0.5931256,-41.37475,1028.922
1.523752212,-0.3486967,-2.575617,2.771422,-0.1894197,0.3267345,0.949652,25.22458,-0.5931256,-41.37475,1028.922
1.526236057,-0.3486967,-2.575617,2.893442,-0.1889237,0.3213951,0.9520078,25.22458,-0.5931256,-41.37475,1028.922
1.528715134,-0.533509,-2.516163,2.954451,-0.186481,0.3252985,0.9549178,25.22458,-0.5931256,-41.37475,1028.922
1.531196594,-0.6567171,-2.516163,3.07647,-0.1855142,0.3286647,0.9487047,25.22458,-0.5931256,-41.37475,1028.922
1.533678532,-0.595113,-2.694525,3.13748,-0.1859975,0.3272263,0.9520531,24.85181,-1.340023,-41.29363,1028.922
1.536159992,-0.4103008,-2.753978,3.13748,-0.1884408,0.3272299,0.9515753,24.85181,-1.340023,-41.29363,1028.922
1.538641930,-0.533509,-2.813432,3.015461,-0.1850249,0.3291557,0.9496682,24.85181,-1.340023,-41.29363,1028.922
1.541123867,-0.533509,-2.694525,3.07647,-0.1845271,0.3243144,0.9539482,24.85181,-1.340023,-41.29363,1028.922
1.543605327,-0.4103008,-2.813432,3.19849,-0.1850126,0.321399,0.9544048,24.85181,-1.340023,-41.29363,1028.922
1.546087265,-0.7799253,-2.93234,3.259499,-0.1855084,0.3272279,0.9525328,24.85181,-1.340023,-41.29363,1028.922
1.548568725,-0.8415294,-2.93234,2.954451,-0.1855077,0.3277202,0.9534968,24.85181,-1.340023,-41.29363,1028.922
1.551050663,-0.6567171,-2.93234,3.07647,-0.1874582,0.3287215,0.9573466,24.85181,-1.340023,-41.29363,1028.922
1.553531647,-0.4719049,-2.93234,3.13748,-0.1874578,0.3223701,0.9529747,24.85181,-1.340023,-41.29363,1028.922
1.556014061,-0.595113,-3.051248,3.259499,-0.1840319,0.3223926,0.958252,24.85181,-1.340023,-41.29363,1028.919
1.558495045,-0.595113,-2.93234,3.320509,-0.1835548,0.3272198,0.9520511,24.85181,-1.340023,-41.29363,1028.919
1.560976982,-0.6567171,-2.991794,3.19849,-0.1845257,0.3233441,0.9544203,24.85181,-1.340023,-41.29363,1028.919
1.563458443,-0.6567171,-3.170156,3.19849,-0.18403,0.3228906,0.9601761,24.85181,-1.340023,-41.29363,1028.919
1.565940380,-0.7799253,-3.110702,3.07647,-0.1850147,0.321877,0.9529687,24.85181,-1.340023,-41.29363,1028.919
1.568422317,-0.8415294,-2.991794,3.07647,-0.1810989,0.3204384,0.9582337,24.85181,-1.340023,-41.29363,1028.919
1.570903778,-0.8415294,-3.110702,3.259499,-0.1801224,0.3243428,0.9606647,24.85181,-1.340023,-41.29363,1028.919
1.573385715,-0.9031335,-2.813432,3.19849,-0.1825698,0.3238369,0.9563426,24.85181,-1.340023,-41.29363,1028.919
1.575867176,-0.9031335,-2.872886,3.19849,-0.1811005,0.3209193,0.9572776,24.85181,-1.340023,-41.29363,1028.919
1.578349113,-0.7799253,-3.170156,3.13748,-0.181102,0.3194452,0.9548655,24.85181,-1.340023,-41.29363,1028.919
1.580832958,-0.7799253,-3.170156,3.19849,-0.177681,0.3199312,0.9563067,24.85181,-1.340023,-41.29363,1028.919
1.583312511,-0.7799253,-2.991794,3.381518,-0.1771944,0.3228523,0.9568102,24.83931,-1.721848,-41.67348,1028.919
1.585793495,-0.7183212,-3.110702,3.19849,-0.1786502,0.318019,0.9615718,24.83931,-1.721848,-41.67348,1028.919
1.588275909,-0.7799253,-3.229609,3.015461,-0.1757247,0.3194481,0.9577411,24.83931,-1.721848,-41.67348,1028.919
1.590756893,-0.7183212,-3.051248,2.954451,-0.1747405,0.3150834,0.9605846,24.83931,-1.721848,-41.67348,1028.919
1.593238830,-0.595113,-3.051248,3.13748,-0.1776721,0.3194877,0.963503,24.83931,-1.721848,-41.67348,1028.919
1.595720768,-0.7183212,-3.051248,3.07647,-0.1786506,0.3165507,0.9601198,24.83931,-1.721848,-41.67348,1028.918
1.598202228,-0.9031335,-2.93234,3.07647,-0.1791418,0.3131172,0.9552922,24.83931,-1.721848,-41.67348,1028.918
1.600684166,-0.7799253,-3.170156,3.19849,-0.1752325,0.316533,0.9586769,24.83931,-1.721848,-41.67348,1028.918
1.603165626,-0.6567171,-3.110702,3.07647,-0.1698604,0.3179756,0.9582043,24.83931,-1.721848,-41.67348,1028.918
1.608129024,-0.8415294,-3.289063,3.19849,-0.1718085,0.3097031,0.9571783,24.83931,-1.721848,-41.67348,1028.918
1.608129024,-0.8415294,-3.289063,3.19849,-0.1718085,0.3097031,0.9571783,24.83931,-1.721848,-41.67348,1028.918
1.610610962,-0.9031335,-3.110702,3.015461,-0.1718199,0.316976,0.9529178,24.83931,-1.721848,-41.67348,1028.918
1.615574360,-0.7183212,-2.93234,3.015461,-0.1708407,0.3184504,0.9558091,24.83931,-1.721848,-41.67348,1028.918
1.618055344,-0.595113,-2.93234,3.13748,-0.1684001,0.316967,0.952915,24.83931,-1.721848,-41.67348,1028.918
1.620537281,-0.6567171,-2.872886,2.954451,-0.1669274,0.3184658,0.9601259,24.83931,-1.721848,-41.67348,1028.918
1.623019695,-0.6567171,-2.753978,3.015461,-0.1649704,0.31652,0.9610684,24.83931,-1.721848,-41.67348,1028.918
1.625500679,-0.533509,-2.813432,2.954451,-0.1659524,0.3208962,0.960145,24.83931,-1.721848,-41.67348,1028.918
1.627982616,-0.6567171,-2.813432,3.015461,-0.1644833,0.317489,0.9605958,24.83931,-1.721848,-41.67348,1028.918
1.630464077,-0.6567171,-2.753978,2.954451,-0.158625,0.3145195,0.9548069,24.83931,-1.721848,-41.67348,1028.918
1.632946014,-0.533509,-2.813432,3.015461,-0.1586287,0.3213432,0.9567827,24.45854,-1.721794,-41.72719,1028.918
1.635427475,-0.4719049,-2.753978,2.954451,-0.1615574,0.3203864,0.9582173,24.45854,-1.721794,-41.72719,1028.918
1.637909412,-0.595113,-2.516163,2.710413,-0.1610655,0.3164924,0.958185,24.45854,-1.721794,-41.72719,1028.918
1.640390873,-0.6567171,-2.278347,2.588394,-0.1522761,0.3169355,0.9548215,24.45854,-1.721794,-41.72719,1028.918
1.642872810,-0.533509,-2.397255,2.649403,-0.1556894,0.31991,0.9625285,24.45854,-1.721794,-41.72719,1028.918
1.645353794,-0.533509,-2.278347,2.710413,-0.1537473,0.3266855,0.9573025,24.45854,-1.721794,-41.72719,1028.918
1.647836208,-0.7183212,-2.15944,2.405365,-0.152771,0.3203257,0.9519696,24.45854,-1.721794,-41.72719,1028.918
1.650317192,-0.595113,-1.981078,2.344355,-0.152766,0.3179071,0.9543499,24.45854,-1.721794,-41.72719,1028.918
1.652799129,-0.533509,-1.981078,2.405365,-0.1517839,0.3198853,0.9601252,24.45854,-1.721794,-41.72719,1028.918
1.655281067,-0.2254885,-1.921624,2.405365,-0.151294,0.3189137,0.9605967,24.45854,-1.721794,-41.72719,1028.918
1.657762527,-0.2254885,-1.802716,2.283345,-0.1483625,0.3198848,0.9615624,24.45854,-1.721794,-41.72719,1028.918
1.660244465,-0.4719049,-1.86217,2.222336,-0.1522723,0.3164661,0.9576976,24.45854,-1.721794,-41.72719,1028.918
1.662725925,-0.3486967,-1.624354,2.222336,-0.1469047,0.3198407,0.9548408,24.45854,-1.721794,-41.72719,1028.918
1.665207863,-0.4719049,-1.505447,1.917288,-0.1473867,0.3213419,0.9615735,24.45854,-1.721794,-41.72719,1028.918
1.667689323,-0.4103008,-1.445993,1.856278,-0.1483634,0.3184135,0.9596303,24.45854,-1.721794,-41.72719,1028.918
1.670171261,-0.2870926,-1.327085,1.856278,-0.1468978,0.3184096,0.9596291,24.45854,-1.721794,-41.72719,1028.918
1.672652721,-0.4103008,-1.327085,1.856278,-0.1449531,0.32471,0.956319,24.45854,-1.721794,-41.72719,1028.918
1.675134659,-0.2870926,-1.148723,1.490221,-0.1415336,0.3256769,0.9568042,24.45854,-1.721794,-41.72719,1028.92
1.677616596,-0.2870926,-1.029815,1.55123,-0.1454357,0.321809,0.9591757,24.45854,-1.721794,-41.72719,1028.92
1.680098057,-0.2254885,-0.7919998,1.490221,-0.1430019,0.3261559,0.9548893,24.45854,-1.721794,-41.72719,1028.92
1.682579994,-0.2870926,-0.7919998,1.307192,-0.1410408,0.3247196,0.9596759,24.83695,-1.723041,-41.73737,1028.92
1.685060978,-0.3486967,-0.4947302,1.246182,-0.1439655,0.3203625,0.9620426,24.83695,-1.723041,-41.73737,1028.92
1.687542915,-0.2870926,-0.3758224,1.124163,-0.1429923,0.3203399,0.9586818,24.83695,-1.723041,-41.73737,1028.92
1.690024376,-0.1638844,-0.3758224,1.002144,-0.1439687,0.3208348,0.9596465,24.83695,-1.723041,-41.73737,1028.92
1.692506313,-0.3486967,-0.1974607,0.9411342,-0.1449518,0.3232502,0.9563071,24.83695,-1.723041,-41.73737,1028.92
1.694987774,-0.2254885,-0.0785529,0.8191149,-0.1439645,0.3218338,0.9639747,24.83695,-1.723041,-41.73737,1028.92
1.697469711,-0.1638844,0.09980881,0.7581053,-0.1468988,0.3208483,0.960609,24.83695,-1.723041,-41.73737,1028.92
1.699951172,-0.2870926,0.09980881,0.5750765,-0.1459244,0.3232757,0.9601482,24.83695,-1.723041,-41.73737,1028.92
1.702433109,-0.2254885,0.1592627,0.5140669,-0.1478759,0.3228059,0.9620658,24.83695,-1.723041,-41.73737,1028.92
1.704915047,-0.04067625,0.3970784,0.3920478,-0.1493464,0.3232734,0.9582309,24.83695,-1.723041,-41.73737,1028.92
1.707396507,0.08253193,0.634894,0.209019,-0.1522746,0.3262294,0.9630575,24.83695,-1.723041,-41.73737,1028.92
1.709878445,-0.04067625,0.5159862,0.209019,-0.1527557,0.3228475,0.9668701,24.83695,-1.723041,-41.73737,1028.92
1.712359428,-0.1638844,0.634894,0.02599015,-0.1537368,0.3223406,0.9630268,24.83695,-1.723041,-41.73737,1028.92
1.714841843,0.02092784,0.634894,-0.03501946,-0.1561822,0.3208673,0.9596568,24.83695,-1.723041,-41.73737,1028.915
1.717322826,0.02092784,0.8132557,-0.1570387,-0.1547114,0.3213786,0.9644598,24.83695,-1.723041,-41.73737,1028.915
1.719804764,-0.1022803,0.9321635,-0.03501946,-0.1552075,0.3223187,0.9587079,24.83695,-1.723041,-41.73737,1028.915
1.722286224,-0.1022803,0.9916174,-0.5230963,-0.1561888,0.3232772,0.9558366,24.83695,-1.723041,-41.73737,1028.915
1.724768162,-0.04067625,1.051071,-0.5230963,-0.1610705,0.3223314,0.9582328,24.83695,-1.723041,-41.73737,1028.915
1.727249622,0.144136,1.169979,-0.5230963,-0.1571612,0.3218373,0.9587055,24.83695,-1.723041,-41.73737,1028.915
1.729731560,0.02092784,1.229433,-0.584106,-0.1586284,0.324277,0.9592066,24.83695,-1.723041,-41.73737,1028.915
1.732213497,0.144136,1.288887,-0.584106,-0.1630206,0.3189363,0.9591665,25.217,-2.098956,-41.74403,1028.915
1.734694958,0.144136,1.467249,-0.7061251,-0.1654637,0.3213843,0.9606285,25.217,-2.098956,-41.74403,1028.915
1.737176895,0.08253193,1.288887,-0.7061251,-0.1630238,0.3233184,0.9596824,25.217,-2.098956,-41.74403,1028.915
1.739658356,0.144136,1.169979,-0.8281444,-0.1620507,0.3193859,0.9534095,25.217,-2.098956,-41.74403,1028.915
1.742140293,0.2057401,1.348341,-1.011173,-0.1610726,0.3228094,0.9567967,25.217,-2.098956,-41.74403,1028.915
1.744621277,0.08253193,1.705064,-1.011173,-0.163508,0.3208983,0.961583,25.217,-2.098956,-41.74403,1028.915
1.747103214,0.144136,1.467249,-0.9501636,-0.1644928,0.3193952,0.9538916,25.217,-2.098956,-41.74403,1028.915
1.749584675,0.08253193,1.705064,-1.194202,-0.1625298,0.3169915,0.9596303,25.217,-2.098956,-41.74403,1028.915
1.752066612,0.08253193,1.823972,-1.133192,-0.1625333,0.3184398,0.9577221,25.217,-2.098956,-41.74403,1028.915
1.754548073,0.144136,1.64561,-1.255212,-0.1615592,0.3179334,0.9548372,25.217,-2.098956,-41.74403,1028.916
1.757030010,0.2057401,1.64561,-1.316221,-0.1674139,0.3174997,0.9610784,25.217,-2.098956,-41.74403,1028.916
1.759511948,0.08253193,1.764518,-1.255212,-0.1727883,0.3160456,0.9596309,25.217,-2.098956,-41.74403,1028.916
1.761993408,0.2057401,1.705064,-1.194202,-0.170348,0.3194481,0.9601368,25.217,-2.098956,-41.74403,1028.916
1.764478683,0.2057401,1.823972,-1.316221,-0.1703476,0.3189615,0.9601328,25.217,-2.098956,-41.74403,1028.916
1.766956806,0.2057401,1.823972,-1.49925,-0.1693729,0.3223679,0.9606398,25.217,-2.098956,-41.74403,1028.916
1.769438744,0.2057401,2.002334,-1.682279,-0.1708364,0.3218938,0.9620771,25.217,-2.098956,-41.74403,1028.916
1.771919727,0.08253193,2.061788,-1.43824,-0.1688874,0.3174634,0.9543594,25.217,-2.098956,-41.74403,1028.916
1.774402142,0.144136,2.002334,-1.49925,-0.1688876,0.3228388,0.9582433,25.217,-2.098956,-41.74403,1028.916
1.776883125,0.3289483,2.061788,-1.682279,-0.1708323,0.3184934,0.9630093,25.217,-2.098956,-41.74403,1028.916
1.779365063,0.144136,2.061788,-1.56026,-0.171331,0.322353,0.9572814,25.217,-2.098956,-41.74403,1028.916
1.781846523,0.2057401,1.94288,-1.743288,-0.1703505,0.3184577,0.9572487,24.86432,-0.9581981,-40.91379,1028.916
1.784328461,0.3289483,1.94288,-1.926317,-0.174749,0.3184608,0.9558123,24.86432,-0.9581981,-40.91379,1028.916
1.786810398,0.2057401,1.94288,-1.743288,-0.1786599,0.3194358,0.9543836,24.86432,-0.9581981,-40.91379,1028.916
1.789291859,0.3289483,2.061788,-1.743288,-0.174258,0.317495,0.957244,24.86432,-0.9581981,-40.91379,1028.916
1.791773796,0.2057401,2.061788,-1.865308,-0.1776744,0.3175213,0.960127,24.86432,-0.9581981,-40.91379,1028.916
1.794255257,0.2673442,2.061788,-1.926317,-0.1791486,0.3228575,0.9568118,24.86432,-0.9581981,-40.91379,1028.917
1.796737194,0.3289483,2.002334,-1.926317,-0.1806119,0.318963,0.9558212,24.86432,-0.9581981,-40.91379,1028.917
1.799218655,0.3289483,2.061788,-1.987327,-0.1806181,0.3208864,0.9519969,24.86432,-0.9581981,-40.91379,1028.917
1.801700592,0.2057401,2.061788,-1.926317,-0.1801269,0.32041,0.9539127,24.86432,-0.9581981,-40.91379,1028.917
1.804181576,0.2673442,1.883426,-2.048336,-0.1850117,0.3223808,0.9558528,24.86432,-0.9581981,-40.91379,1028.917
1.806663990,0.3289483,1.764518,-2.048336,-0.1840316,0.3155517,0.9533961,24.86432,-0.9581981,-40.91379,1028.917
1.809144974,0.3905524,1.94288,-1.987327,-0.1854975,0.3165316,0.9538853,24.86432,-0.9581981,-40.91379,1028.917
1.811626911,0.2057401,1.94288,-2.048336,-0.1869632,0.3199559,0.9563144,24.86432,-0.9581981,-40.91379,1028.917
1.814108849,0.144136,1.94288,-2.109346,-0.18355,0.3223568,0.9524913,24.86432,-0.9581981,-40.91379,1028.917
1.816590309,0.5137606,2.061788,-2.048336,-0.188435,0.3218832,0.9524915,24.86432,-0.9581981,-40.91379,1028.917
1.819072247,0.5137606,1.883426,-2.170356,-0.1864764,0.3160362,0.951962,24.86432,-0.9581981,-40.91379,1028.917
1.821553707,0.4521565,1.764518,-2.170356,-0.1840366,0.3213907,0.9534438,24.86432,-0.9581981,-40.91379,1028.917
1.824035644,0.3905524,1.586156,-2.170356,-0.1840341,0.322381,0.9563319,24.86432,-0.9581981,-40.91379,1028.917
1.826517105,0.3289483,1.64561,-2.048336,-0.1840388,0.3194243,0.9500678,24.86432,-0.9581981,-40.91379,1028.917
1.828999042,0.3289483,1.823972,-2.170356,-0.1845288,0.3243058,0.9525081,24.86432,-0.9581981,-40.91379,1028.917
1.831480503,0.144136,1.764518,-2.170356,-0.1840355,0.3174865,0.951492,24.08014,-1.720547,-41.71701,1028.917
1.833962440,0.2057401,1.64561,-2.231365,-0.1825678,0.3130948,0.9500149,24.08014,-1.720547,-41.71701,1028.915
1.836443424,0.5137606,1.705064,-2.048336,-0.1845274,0.3194256,0.9500682,24.08014,-1.720547,-41.71701,1028.915
1.838925362,0.3905524,1.705064,-2.170356,-0.1835465,0.3189536,0.9529436,24.08014,-1.720547,-41.71701,1028.915
1.841407776,0.3905524,1.407795,-2.170356,-0.1845235,0.3194457,0.9534283,24.08014,-1.720547,-41.71701,1028.915
1.843888760,0.3289483,1.467249,-2.231365,-0.1845294,0.320393,0.9491162,24.08014,-1.720547,-41.71701,1028.915
1.846370697,0.3289483,1.229433,-2.170356,-0.1850084,0.3165332,0.954365,24.08014,-1.720547,-41.71701,1028.915
1.848852158,0.3289483,1.586156,-2.231365,-0.1855071,0.3199033,0.948153,24.08014,-1.720547,-41.71701,1028.915
1.851337433,0.2673442,1.526703,-2.170356,-0.1825768,0.3189137,0.9467025,24.08014,-1.720547,-41.71701,1028.915
1.853815556,0.2673442,1.823972,-2.353384,-0.1859866,0.3204399,0.9563176,24.08014,-1.720547,-41.71701,1028.915
1.856297493,0.2673442,1.64561,-2.292375,-0.1908801,0.3233438,0.9515455,24.08014,-1.720547,-41.71701,1028.915
1.858778954,0.2673442,1.407795,-2.292375,-0.1869704,0.3204081,0.9505583,24.08014,-1.720547,-41.71701,1028.915
1.861260891,0.4521565,1.407795,-2.292375,-0.1899008,0.3233526,0.9534647,24.08014,-1.720547,-41.71701,1028.915
1.863741875,0.144136,1.169979,-2.353384,-0.1899057,0.3257712,0.9510845,24.08014,-1.720547,-41.71701,1028.915
1.866224289,0.4521565,1.288887,-2.231365,-0.1933263,0.3247986,0.9496393,24.08014,-1.720547,-41.71701,1028.915
1.868708134,0.3905524,1.229433,-2.170356,-0.1923502,0.3213698,0.9462506,24.08014,-1.720547,-41.71701,1028.915
1.871187210,0.3289483,1.169979,-2.231365,-0.1859918,0.3199247,0.9515135,24.08014,-1.720547,-41.71701,1028.915
1.873669624,0.2057401,1.288887,-2.231365,-0.197229,0.3189728,0.9500749,24.08014,-1.720547,-41.71701,1028.918
1.876150608,0.2057401,1.229433,-2.292375,-0.1918603,0.3223531,0.9481782,24.08014,-1.720547,-41.71701,1028.918
1.878636837,0.2057401,0.9916174,-2.170356,-0.1947818,0.3209442,0.955369,24.08014,-1.720547,-41.71701,1028.918
1.881114006,0.3289483,0.9916174,-2.231365,-0.1942996,0.3223768,0.9510603,25.23022,-1.34127,-41.30381,1028.918
1.883595943,0.2057401,0.8132557,-2.414394,-0.1913679,0.3199275,0.9495979,25.23022,-1.34127,-41.30381,1028.918
1.886077404,0.2057401,0.57544,-2.414394,-0.1918565,0.3218838,0.9510543,25.23022,-1.34127,-41.30381,1028.918
1.888559341,0.4521565,0.7538018,-2.292375,-0.1923475,0.3228496,0.9496226,25.23022,-1.34127,-41.30381,1028.918
1.891040802,0.5753646,0.8727096,-2.170356,-0.195275,0.322388,0.9525012,25.23022,-1.34127,-41.30381,1028.918
1.893522739,0.2057401,0.6943479,-2.109346,-0.1928317,0.3223844,0.9529792,25.23022,-1.34127,-41.30381,1028.918
1.896004677,0.2057401,0.57544,-2.231365,-0.1933133,0.3155793,0.9538839,25.23022,-1.34127,-41.30381,1028.918
1.898486137,0.3289483,0.6943479,-2.231365,-0.1962493,0.3184951,0.9519901,25.23022,-1.34127,-41.30381,1028.918
1.900968075,0.3289483,0.57544,-2.353384,-0.1889205,0.3189679,0.952948,25.23022,-1.34127,-41.30381,1028.918
1.903449059,0.3289483,0.5159862,-2.170356,-0.193319,0.320926,0.9529676,25.23022,-1.34127,-41.30381,1028.918
1.905930996,0.2057401,0.4565322,-2.292375,-0.1923411,0.3179952,0.9515029,25.23022,-1.34127,-41.30381,1028.918
1.908412456,0.2057401,0.4565322,-2.109346,-0.1952642,0.3131573,0.9548256,25.23022,-1.34127,-41.30381,1028.918
1.910894394,0.2057401,0.3376244,-2.231365,-0.1913649,0.3189658,0.9515101,25.23022,-1.34127,-41.30381,1028.918
1.913375854,0.144136,0.4565322,-2.109346,-0.1938099,0.3184714,0.9491081,25.23022,-1.34127,-41.30381,1028.914
1.915857792,0.144136,0.3376244,-2.292375,-0.189902,0.3209025,0.9505647,25.23022,-1.34127,-41.30381,1028.914
1.918339252,0.2057401,0.09980881,-2.231365,-0.1913602,0.3175232,0.9543782,25.23022,-1.34127,-41.30381,1028.914
1.920821190,0.2673442,0.09980881,-2.292375,-0.1913598,0.3170367,0.9543743,25.23022,-1.34127,-41.30381,1028.914
1.923303127,0.3289483,0.04035491,-2.170356,-0.1903851,0.3165331,0.9519693,25.23022,-1.34127,-41.30381,1028.914
1.925784588,0.2057401,0.04035491,-2.048336,-0.1869663,0.3150528,0.9500345,25.23022,-1.34127,-41.30381,1028.914
1.928266525,0.3289483,0.04035491,-2.109346,-0.1889226,0.315536,0.9486001,25.23022,-1.34127,-41.30381,1028.914
1.930747509,0.3289483,0.09980881,-1.987327,-0.189401,0.311679,0.9543289,24.45527,-0.9724571,-41.73423,1028.914
1.933229923,0.144136,-0.019099,-1.987327,-0.1918397,0.31415,0.959631,24.45527,-0.9724571,-41.73423,1028.914
1.935710907,0.144136,-0.1974607,-1.987327,-0.1933146,0.3145946,0.9519558,24.45527,-0.9724571,-41.73423,1028.914
1.938192844,0.2057401,-0.1974607,-1.682279,-0.1908711,0.3136149,0.9519458,24.45527,-0.9724571,-41.73423,1028.914
1.940674305,0.02092784,-0.1974607,-1.926317,-0.1942826,0.3151326,0.960121,24.45527,-0.9724571,-41.73423,1028.914
1.943156242,0.02092784,-0.1974607,-1.804298,-0.1962406,0.3116972,0.9543346,24.45527,-0.9724571,-41.73423,1028.914
1.948119640,0.2673442,-0.2569146,-1.743288,-0.1947787,0.3141177,0.9529132,24.45527,-0.9724571,-41.73423,1028.914
1.948119640,0.2673442,-0.2569146,-1.743288,-0.1947787,0.3141177,0.9529132,24.45527,-0.9724571,-41.73423,1028.914
1.953083038,0.2057401,-0.3163685,-1.682279,-0.1913521,0.3107226,0.9562425,24.45527,-0.9724571,-41.73423,1028.915
1.955564976,0.08253193,-0.4352763,-1.621269,-0.1952694,0.314597,0.9514775,24.45527,-0.9724571,-41.73423,1028.915
1.958046436,0.144136,-0.4352763,-1.682279,-0.1957543,0.3136394,0.9538701,24.45527,-0.9724571,-41.73423,1028.915
1.960528374,0.2057401,-0.6730919,-1.49925,-0.1942898,0.3136298,0.9529088,24.45527,-0.9724571,-41.73423,1028.915
1.963009357,0.144136,-0.5541841,-1.43824,-0.1918364,0.307813,0.9576591,24.45527,-0.9724571,-41.73423,1028.915
1.965491772,0.144136,-0.613638,-1.316221,-0.1938001,0.3077694,0.9495004,24.45527,-0.9724571,-41.73423,1028.915
1.967975616,0.144136,-0.613638,-1.377231,-0.1972221,0.3116769,0.9504952,24.45527,-0.9724571,-41.73423,1028.915
1.970454693,0.2057401,-0.7325459,-1.316221,-0.2006387,0.3151236,0.9558062,24.45527,-0.9724571,-41.73423,1028.915
1.972936153,0.08253193,-0.7325459,-1.072183,-0.1996706,0.3150752,0.948125,24.45527,-0.9724571,-41.73423,1028.915
1.975418091,0.144136,-0.7919998,-1.072183,-0.1981979,0.3141296,0.953396,24.45527,-0.9724571,-41.73423,1028.915
1.977900028,0.2673442,-1.029815,-1.133192,-0.2001538,0.3141262,0.9519576,24.45527,-0.9724571,-41.73423,1028.915
1.980381489,0.02092784,-1.089269,-0.9501636,-0.1982037,0.3136115,0.9481118,24.85017,-0.9653546,-41.29716,1028.915
1.982863426,0.2057401,-1.089269,-0.8281444,-0.1982038,0.315077,0.9490839,24.85017,-0.9653546,-41.29716,1028.915
1.985344887,0.2057401,-1.208177,-0.889154,-0.1977174,0.3135987,0.9461914,24.85017,-0.9653546,-41.29716,1028.915
1.987826824,0.02092784,-1.267631,-0.889154,-0.1986919,0.3126368,0.9476244,24.85017,-0.9653546,-41.29716,1028.915
1.990308285,0.08253193,-1.386539,-0.7671348,-0.2001593,0.3184969,0.9505534,24.85017,-0.9653546,-41.29716,1028.915
1.992790222,0.08253193,-1.445993,-0.584106,-0.1986897,0.3146032,0.9510003,24.85017,-0.9653546,-41.29716,1028.915
1.995271206,0.2673442,-1.505447,-0.4620867,-0.1982003,0.3136287,0.9509919,24.85017,-0.9653546,-41.29716,1028.918
1.997753143,0.144136,-1.505447,-0.4010771,-0.1986953,0.3145745,0.9462003,24.85017,-0.9653546,-41.29716,1028.918
2.000235558,0.144136,-1.743262,-0.4010771,-0.2006475,0.3175221,0.9500659,24.85017,-0.9653546,-41.29716,1028.918
2.002716541,0.2057401,-1.683808,-0.3400675,-0.2001548,0.3165649,0.9529375,24.85017,-0.9653546,-41.29716,1028.918
2.005198479,0.02092784,-1.743262,-0.1570387,-0.1943001,0.3184641,0.9476684,24.85017,-0.9653546,-41.29716,1028.918
2.007679939,-0.04067625,-1.683808,-0.2180483,-0.1957621,0.3155542,0.9486058,24.85017,-0.9653546,-41.29716,1028.918
2.010161877,0.08253193,-1.743262,-0.09602907,-0.1957617,0.3111578,0.9456899,24.85017,-0.9653546,-41.29716,1028.918
2.012643337,0.2057401,-1.86217,-0.09602907,-0.1957624,0.3165303,0.9490938,24.85017,-0.9653546,-41.29716,1028.918
2.015125275,0.144136,-1.921624,-0.03501946,-0.1928334,0.316511,0.9471712,24.85017,-0.9653546,-41.29716,1028.918
2.017606735,0.02092784,-1.86217,0.209019,-0.1928372,0.3189353,0.9457511,24.85017,-0.9653546,-41.29716,1028.918
2.020088673,-0.1022803,-2.040532,0.2700286,-0.1967459,0.3213872,0.9472143,24.85017,-0.9653546,-41.29716,1028.918
2.022569656,0.02092784,-2.218894,0.2700286,-0.1977246,0.3179607,0.9433471,24.85017,-0.9653546,-41.29716,1028.918
2.025052070,0.08253193,-2.278347,0.2700286,-0.1943052,0.3184382,0.9433482,24.85017,-0.9653546,-41.29716,1028.918
2.027534008,0.02092784,-2.15944,0.3920478,-0.1918579,0.324809,0.9520382,24.85017,-0.9653546,-41.29716,1028.918
2.030014992,-0.04067625,-2.337801,0.3920478,-0.1889321,0.3213521,0.9448077,25.22858,-0.9666015,-41.30734,1028.918
2.032496929,0.02092784,-2.397255,0.5750765,-0.189906,0.3189275,0.9457486,25.22858,-0.9666015,-41.30734,1028.918
2.034978390,0.02092784,-2.516163,0.5750765,-0.1859932,0.320895,0.9510414,25.22858,-0.9666015,-41.30734,1028.913
2.037460327,0.02092784,-2.456709,0.6970958,-0.1889314,0.3257543,0.9486836,25.22858,-0.9666015,-41.30734,1028.913
2.039941787,-0.04067625,-2.456709,0.7581053,-0.1874648,0.3272216,0.9506145,25.22858,-0.9666015,-41.30734,1028.913
2.042423725,-0.04067625,-2.397255,0.7581053,-0.1825846,0.3286483,0.9472621,25.22858,-0.9666015,-41.30734,1028.913
2.044905185,0.08253193,-2.456709,0.8191149,-0.1859972,0.3242953,0.9501093,25.22858,-0.9666015,-41.30734,1028.913
2.047387123,-0.04067625,-2.575617,0.8801246,-0.1889262,0.3223597,0.9505759,25.22858,-0.9666015,-41.30734,1028.913
2.049868583,-0.2870926,-2.456709,0.8191149,-0.184532,0.322823,0.9486561,25.22858,-0.9666015,-41.30734,1028.913
2.052350521,-0.1022803,-2.575617,1.002144,-0.1825811,0.3272,0.9491703,25.22858,-0.9666015,-41.30734,1028.913
2.054832458,-0.1638844,-2.456709,1.002144,-0.184533,0.3272167,0.9510919,25.22858,-0.9666015,-41.30734,1028.913
2.057313919,-0.2870926,-2.516163,1.002144,-0.1835551,0.324286,0.9496272,25.22858,-0.9666015,-41.30734,1028.913
2.059795856,-0.3486967,-2.516163,1.124163,-0.1835569,0.3276978,0.9506152,25.22858,-0.9666015,-41.30734,1028.913
2.062276840,-0.2254885,-2.456709,1.002144,-0.1820839,0.3301756,0.9587941,25.22858,-0.9666015,-41.30734,1028.913
2.064758777,-0.2254885,-2.575617,1.002144,-0.1835516,0.3247927,0.9529913,25.22858,-0.9666015,-41.30734,1028.913
2.067240238,-0.3486967,-2.635071,1.124163,-0.1791542,0.3286937,0.9563795,25.22858,-0.9666015,-41.30734,1028.913
2.069722175,-0.2870926,-2.456709,1.063153,-0.1815994,0.3257549,0.9520375,25.22858,-0.9666015,-41.30734,1028.913
2.072203636,-0.4103008,-2.575617,1.063153,-0.1820909,0.3272073,0.9506099,25.22858,-0.9666015,-41.30734,1028.913
2.074685573,-0.2870926,-2.694525,1.185173,-0.1815953,0.3243094,0.9544258,25.22858,-0.9666015,-41.30734,1028.915
2.077170849,-0.4103008,-2.635071,1.246182,-0.1855067,0.3194167,0.948149,25.22858,-0.9666015,-41.30734,1028.915
2.079648971,-0.2870926,-2.337801,1.246182,-0.1830646,0.3233172,0.9505789,24.83695,-1.723041,-41.73737,1028.915
2.082130909,-0.2870926,-2.337801,1.185173,-0.1781782,0.3247755,0.9525067,24.83695,-1.723041,-41.73737,1028.915
2.084612369,-0.2870926,-2.575617,1.124163,-0.1801317,0.3213631,0.9505605,24.83695,-1.723041,-41.73737,1028.915
2.087094307,-0.3486967,-2.516163,1.002144,-0.1796464,0.323789,0.9496199,24.83695,-1.723041,-41.73737,1028.915
2.089575290,-0.4103008,-2.456709,1.124163,-0.1855032,0.3199234,0.9515131,24.83695,-1.723041,-41.73737,1028.915
2.092057705,-0.3486967,-2.456709,1.246182,-0.1825704,0.3174798,0.9510107,24.83695,-1.723041,-41.73737,1028.915
2.094538688,-0.2870926,-2.575617,1.246182,-0.1815998,0.3223315,0.9491297,24.83695,-1.723041,-41.73737,1028.915
2.097020626,-0.3486967,-2.575617,1.429211,-0.1810964,0.3194739,0.9596657,24.83695,-1.723041,-41.73737,1028.915
2.099502086,-0.4103008,-2.575617,1.490221,-0.1771886,0.3214155,0.9606383,24.83695,-1.723041,-41.73737,1028.915
2.101984024,-0.4719049,-2.516163,1.490221,-0.1791465,0.3184696,0.955336,24.83695,-1.723041,-41.73737,1028.915
2.104465961,-0.2254885,-2.456709,1.307192,-0.1762148,0.3160203,0.9538736,24.83695,-1.723041,-41.73737,1028.915
2.106947422,-0.3486967,-2.575617,1.429211,-0.180601,0.3102217,0.9586297,24.83695,-1.723041,-41.73737,1028.915
2.109429359,-0.4103008,-2.753978,1.368201,-0.1825622,0.3150784,0.956271,24.83695,-1.723041,-41.73737,1028.915
2.111910820,-0.4103008,-2.456709,1.429211,-0.1796313,0.3136022,0.9548165,24.83695,-1.723041,-41.73737,1028.915
2.114392757,-0.4103008,-2.337801,1.429211,-0.1796254,0.3107,0.9576728,24.83695,-1.723041,-41.73737,1028.918
2.116874218,-0.4103008,-2.575617,1.490221,-0.1810932,0.3111818,0.9562379,24.83695,-1.723041,-41.73737,1028.918
2.119356155,-0.4103008,-2.635071,1.429211,-0.1791417,0.3116517,0.9543203,24.83695,-1.723041,-41.73737,1028.918
2.121837139,-0.4103008,-2.635071,1.490221,-0.1796367,0.3165074,0.9524403,24.83695,-1.723041,-41.73737,1028.918
2.124319076,-0.4103008,-2.753978,1.55123,-0.1786465,0.3092405,0.9581401,24.83695,-1.723041,-41.73737,1028.918
2.126800537,-0.4103008,-2.635071,1.55123,-0.1776728,0.3131305,0.9581711,24.83695,-1.723041,-41.73737,1028.918
2.129282474,-0.533509,-2.575617,1.429211,-0.1776716,0.3097159,0.9567032,24.85109,-1.715884,-41.354,1028.918
2.131764412,-0.2870926,-2.575617,1.673249,-0.1801161,0.3131341,0.957693,24.85109,-1.715884,-41.354,1028.918
2.134245872,-0.3486967,-2.694525,1.673249,-0.1776751,0.313119,0.956251,24.85109,-1.715884,-41.354,1028.918
2.136727810,-0.533509,-2.753978,1.55123,-0.175234,0.3131039,0.9548089,24.85109,-1.715884,-41.354,1028.918
2.139209270,-0.4103008,-2.575617,1.673249,-0.1796202,0.3092603,0.9610209,24.85109,-1.715884,-41.354,1028.918
2.141691208,-0.2254885,-2.397255,1.673249,-0.1742529,0.3175208,0.9615642,24.85109,-1.715884,-41.354,1028.918
2.144172668,-0.3486967,-2.516163,1.856278,-0.1703455,0.3165286,0.9601129,24.85109,-1.715884,-41.354,1028.918
2.146654606,-0.1022803,-2.575617,1.795269,-0.1781653,0.3170216,0.9577233,24.85109,-1.715884,-41.354,1028.918
2.149135589,-0.3486967,-2.516163,1.795269,-0.1762141,0.3106478,0.9504697,24.85109,-1.715884,-41.354,1028.918
2.151618004,-0.4103008,-2.516163,1.917288,-0.1722997,0.3101795,0.9552626,24.85109,-1.715884,-41.354,1028.918
2.154099941,-0.2254885,-2.635071,1.734259,-0.1713216,0.3140925,0.9591337,24.85109,-1.715884,-41.354,1028.916
2.156580925,-0.1022803,-2.516163,1.734259,-0.1742536,0.3170285,0.9606001,24.85109,-1.715884,-41.354,1028.916
2.159063339,-0.1638844,-2.516163,1.856278,-0.1747457,0.318478,0.9586924,24.85109,-1.715884,-41.354,1028.916
2.161544323,-0.2870926,-2.516163,1.795269,-0.170843,0.3145291,0.950977,24.85109,-1.715884,-41.354,1028.916
2.164026260,-0.4103008,-2.337801,1.917288,-0.1723045,0.3150425,0.9548224,24.85109,-1.715884,-41.354,1028.916
2.166507721,-0.2254885,-2.397255,1.856278,-0.1722947,0.3121603,0.9610387,24.85109,-1.715884,-41.354,1028.916
2.168989658,-0.2870926,-2.337801,1.795269,-0.1639932,0.3111421,0.9571837,24.85109,-1.715884,-41.354,1028.916
2.171471119,-0.2254885,-2.15944,1.978297,-0.1718165,0.3189482,0.9572539,24.85109,-1.715884,-41.354,1028.916
2.173953056,-0.2870926,-2.278347,1.917288,-0.1737714,0.320416,0.9577475,24.85109,-1.715884,-41.354,1028.916
2.176434517,-0.2870926,-2.278347,1.917288,-0.1723055,0.3155262,0.9543464,24.85109,-1.715884,-41.354,1028.916
2.178916454,-0.2870926,-2.099986,1.856278,-0.1698666,0.319899,0.9543802,25.22694,-0.5919328,-41.31086,1028.916
2.181397438,-0.2254885,-2.218894,1.856278,-0.1698628,0.3194296,0.9572563,25.22694,-0.5919328,-41.31086,1028.916
2.183879852,-0.4103008,-2.15944,1.917288,-0.1688867,0.3218657,0.9582353,25.22694,-0.5919328,-41.31086,1028.916
2.186361790,-0.3486967,-2.040532,1.917288,-0.1688813,0.31945,0.9610955,25.22694,-0.5919328,-41.31086,1028.916
2.188842773,-0.2870926,-2.218894,1.856278,-0.1713276,0.3184603,0.9572495,25.22694,-0.5919328,-41.31086,1028.916
2.191325664,-0.1638844,-2.040532,1.856278,-0.1728018,0.3218416,0.9524783,25.22694,-0.5919328,-41.31086,1028.916
2.193810463,-0.2870926,-2.040532,1.795269,-0.1703583,0.3184175,0.9505284,25.22694,-0.5919328,-41.31086,1028.917
2.196288109,-0.2870926,-2.040532,1.795269,-0.171813,0.3174999,0.959162,25.22694,-0.5919328,-41.31086,1028.917
2.198769569,-0.2870926,-2.040532,1.856278,-0.1713279,0.3174814,0.9562815,25.22694,-0.5919328,-41.31086,1028.917
2.201251983,-0.3486967,-2.040532,1.795269,-0.1737769,0.3189218,0.9519752,25.22694,-0.5919328,-41.31086,1028.917
2.203732967,-0.2870926,-1.86217,1.734259,-0.174751,0.3155183,0.9519482,25.22694,-0.5919328,-41.31086,1028.917
2.206214905,-0.3486967,-1.921624,1.673249,-0.1703617,0.3223102,0.9505603,25.22694,-0.5919328,-41.31086,1028.917
2.208696365,-0.4719049,-1.921624,1.734259,-0.1713304,0.3204009,0.9563053,25.22694,-0.5919328,-41.31086,1028.917
2.211178303,-0.2870926,-2.040532,1.795269,-0.178656,0.3175009,0.9562876,25.22694,-0.5919328,-41.31086,1028.917
2.213660240,-0.2254885,-2.099986,1.795269,-0.1771992,0.3218504,0.952002,25.22694,-0.5919328,-41.31086,1028.917
2.216141224,-0.3486967,-1.86217,1.734259,-0.1767141,0.3213425,0.9486375,25.22694,-0.5919328,-41.31086,1028.917
2.218623638,-0.4103008,-2.099986,1.734259,-0.1747519,0.3204014,0.9548681,25.22694,-0.5919328,-41.31086,1028.917
2.221104622,-0.2870926,-2.040532,1.673249,-0.1757364,0.3237872,0.9510567,25.22694,-0.5919328,-41.31086,1028.917
2.223586559,-0.2254885,-2.099986,1.795269,-0.179156,0.3262407,0.9529995,25.22694,-0.5919328,-41.31086,1028.917
2.226068020,-0.1022803,-1.86217,1.795269,-0.1757348,0.3252613,0.9534687,25.22694,-0.5919328,-41.31086,1028.917
2.228549957,-0.04067625,-2.040532,1.734259,-0.1767115,0.3208674,0.9505537,24.83204,-0.5990354,-41.74794,1028.917
2.231031418,-0.2870926,-2.218894,1.734259,-0.1757279,0.3179654,0.9538891,24.83204,-0.5990354,-41.74794,1028.917
2.233513355,-0.3486967,-2.099986,1.61224,-0.1752425,0.3208807,0.9534325,24.83204,-0.5990354,-41.74794,1028.915
2.235995292,-0.3486967,-1.921624,1.55123,-0.1718242,0.3213524,0.9524736,24.83204,-0.5990354,-41.74794,1028.915
2.238476753,-0.2254885,-1.981078,1.673249,-0.1742674,0.3218455,0.9524796,24.83204,-0.5990354,-41.74794,1028.915
2.240958690,-0.4103008,-1.921624,1.734259,-0.1747526,0.3199091,0.9539042,24.83204,-0.5990354,-41.74794,1028.915
2.243440151,-0.4103008,-1.981078,1.61224,-0.1713333,0.3218521,0.9548773,24.83204,-0.5990354,-41.74794,1028.915
2.245922088,-0.2870926,-1.802716,1.673249,-0.1727985,0.3233243,0.9563305,24.83204,-0.5990354,-41.74794,1028.915
2.248403072,-0.4103008,-1.981078,1.673249,-0.173778,0.322826,0.9539272,24.83204,-0.5990354,-41.74794,1028.915
2.250889778,-0.2254885,-1.981078,1.673249,-0.1718332,0.3271714,0.9491613,24.83204,-0.5990354,-41.74794,1028.915
2.253366470,-0.4103008,-2.040532,1.61224,-0.1693884,0.324732,0.9491394,24.83204,-0.5990354,-41.74794,1028.915
2.255848408,-0.3486967,-1.981078,1.734259,-0.1727998,0.3247841,0.9563424,24.83204,-0.5990354,-41.74794,1028.915
2.258329868,-0.3486967,-1.802716,1.673249,-0.1708372,0.322867,0.962085,24.83204,-0.5990354,-41.74794,1028.915
2.260811806,-0.2870926,-1.743262,1.429211,-0.1693776,0.323321,0.9572877,24.83204,-0.5990354,-41.74794,1028.915
2.263293743,-0.2870926,-1.86217,1.429211,-0.1703494,0.3223734,0.9611207,24.83204,-0.5990354,-41.74794,1028.915
2.265775204,-0.2870926,-1.981078,1.429211,-0.1713216,0.3219123,0.9649577,24.83204,-0.5990354,-41.74794,1028.915
2.268259048,-0.3486967,-1.86217,1.55123,-0.1698662,0.3252772,0.958744,24.83204,-0.5990354,-41.74794,1028.915
2.270738602,-0.4719049,-1.921624,1.673249,-0.1718216,0.3247872,0.9573017,24.83204,-0.5990354,-41.74794,1028.915
2.273220539,-0.4719049,-1.743262,1.368201,-0.1771954,0.323336,0.9563341,24.83204,-0.5990354,-41.74794,1028.918
2.275701999,-0.3486967,-1.802716,1.490221,-0.1723069,0.3223614,0.9582422,24.83204,-0.5990354,-41.74794,1028.918
2.278183937,-0.2870926,-1.743262,1.429211,-0.1713308,0.3267524,0.9606772,24.47177,-0.9641078,-41.28698,1028.918
2.283146858,-0.4103008,-1.802716,1.246182,-0.1698704,0.3223233,0.95296,24.47177,-0.9641078,-41.28698,1028.918
2.285628319,-0.3486967,-1.86217,1.368201,-0.1747561,0.3252673,0.954908,24.47177,-0.9641078,-41.28698,1028.918
2.288110256,-0.4103008,-1.802716,1.368201,-0.1713324,0.3233233,0.9568093,24.47177,-0.9641078,-41.28698,1028.918
2.290592193,-0.4103008,-1.683808,1.246182,-0.1708479,0.3267224,0.9558767,24.47177,-0.9641078,-41.28698,1028.918
2.293073654,-0.3486967,-1.802716,1.368201,-0.1718185,0.3218706,0.9577577,24.47177,-0.9641078,-41.28698,1028.918
2.295555591,-0.533509,-1.802716,1.307192,-0.1703541,0.3213715,0.9563125,24.47177,-0.9641078,-41.28698,1028.918
2.298037052,-0.595113,-1.921624,1.185173,-0.16938,0.3208651,0.9534276,24.47177,-0.9641078,-41.28698,1028.918
2.300518989,-0.2870926,-1.683808,1.246182,-0.1693708,0.31798,0.9591639,24.47177,-0.9641078,-41.28698,1028.918
2.303005695,-0.533509,-1.624354,1.124163,-0.1683907,0.3165263,0.9605912,24.47177,-0.9641078,-41.28698,1028.918
2.305482387,-0.533509,-1.683808,1.124163,-0.1723099,0.3199026,0.9539021,24.47177,-0.9641078,-41.28698,1028.918
2.307963371,-0.3486967,-1.743262,1.185173,-0.1674188,0.3179633,0.9572423,24.47177,-0.9641078,-41.28698,1028.918
2.310445785,-0.3486967,-1.743262,1.124163,-0.1644878,0.3174661,0.9567558,24.47177,-0.9641078,-41.28698,1028.918
2.312927723,-0.4103008,-1.564901,1.185173,-0.1693694,0.3170097,0.959636,24.47177,-0.9641078,-41.28698,1028.915
2.315408707,-0.2870926,-1.743262,1.002144,-0.166437,0.3111428,0.9562256,24.47177,-0.9641078,-41.28698,1028.915
2.317890644,-0.4103008,-1.802716,1.002144,-0.1649746,0.315521,0.9567403,24.47177,-0.9641078,-41.28698,1028.915
2.320372104,-0.2870926,-1.743262,1.002144,-0.1654699,0.3193978,0.9538924,24.47177,-0.9641078,-41.28698,1028.915
2.322854042,-0.4719049,-1.624354,1.002144,-0.1683876,0.3136096,0.9610474,24.47177,-0.9641078,-41.28698,1028.915
2.325335502,-0.4719049,-1.445993,1.002144,-0.1654557,0.3140941,0.9620089,24.47177,-0.9641078,-41.28698,1028.915
2.327817440,-0.2870926,-1.327085,0.9411342,-0.1630209,0.3160024,0.9567426,25.20121,-1.731444,-42.13092,1028.915
2.330298900,-0.1638844,-1.267631,0.9411342,-0.16449,0.3194095,0.9562917,25.20121,-1.731444,-42.13092,1028.915
2.332780838,-0.2870926,-1.327085,0.7581053,-0.1659488,0.3218923,0.9639931,25.20121,-1.731444,-42.13092,1028.915
2.335262298,-0.3486967,-1.505447,0.6970958,-0.1630224,0.3184382,0.9572425,25.20121,-1.731444,-42.13092,1028.915
2.337744236,-0.3486967,-1.267631,0.9411342,-0.1639916,0.3106612,0.9581397,25.20121,-1.731444,-42.13092,1028.915
2.340226173,-0.3486967,-1.267631,0.8801246,-0.1630144,0.3111481,0.9586229,25.20121,-1.731444,-42.13092,1028.915
2.342707634,-0.2254885,-1.208177,0.6970958,-0.1674142,0.3145659,0.9586545,25.20121,-1.731444,-42.13092,1028.915
2.345189571,-0.2870926,-1.208177,0.6360862,-0.168387,0.3141019,0.9620113,25.20121,-1.731444,-42.13092,1028.915
2.347670555,-0.1638844,-1.208177,0.8801246,-0.1674211,0.3159969,0.9538662,25.20121,-1.731444,-42.13092,1028.915
2.350152492,-0.1022803,-1.267631,0.7581053,-0.1683914,0.3101691,0.9552593,25.20121,-1.731444,-42.13092,1028.915
2.352633953,-0.1022803,-1.148723,0.5140669,-0.1698514,0.3102017,0.9600607,25.20121,-1.731444,-42.13092,1028.919
2.355115890,-0.2870926,-1.089269,0.6360862,-0.1722954,0.309713,0.9586188,25.20121,-1.731444,-42.13092,1028.919
2.357597351,-0.1022803,-1.208177,0.8801246,-0.1659545,0.3155093,0.9543411,25.20121,-1.731444,-42.13092,1028.919
2.360079288,-0.04067625,-1.148723,0.9411342,-0.1703543,0.3150172,0.9514606,25.20121,-1.731444,-42.13092,1028.919
2.362560749,-0.1638844,-1.029815,0.6360862,-0.1683963,0.3164976,0.9557911,25.20121,-1.731444,-42.13092,1028.919
2.365042686,-0.1638844,-1.089269,0.6360862,-0.1732862,0.3145327,0.9504991,25.20121,-1.731444,-42.13092,1028.919
2.367524624,0.02092784,-1.089269,0.5750765,-0.167904,0.3160269,0.9586668,25.20121,-1.731444,-42.13092,1028.919
2.370006084,-0.04067625,-1.089269,0.5140669,-0.1644913,0.3169594,0.9533917,25.20121,-1.731444,-42.13092,1028.919
2.372488022,0.02092784,-1.029815,0.6360862,-0.1664521,0.3169302,0.9476331,25.20121,-1.731444,-42.13092,1028.919
2.374969005,-0.04067625,-1.029815,0.6360862,-0.1683993,0.3120839,0.949995,25.20121,-1.731444,-42.13092,1028.919
2.377452373,-0.1638844,-1.029815,0.5750765,-0.1649836,0.3154751,0.94906,24.47269,-1.714638,-41.34382,1028.919
2.379937172,-0.04067625,-0.9703615,0.5140669,-0.1615603,0.3218375,0.9567891,24.47269,-1.714638,-41.34382,1028.919
2.382414341,0.08253193,-0.9109076,0.5750765,-0.1615586,0.3179362,0.9553173,24.47269,-1.714638,-41.34382,1028.919
2.384895801,0.08253193,-0.9703615,0.5750765,-0.1654699,0.3213528,0.9553484,24.47269,-1.714638,-41.34382,1028.919
2.387377739,0.08253193,-0.9109076,0.6360862,-0.1581417,0.3218227,0.9558263,24.47269,-1.714638,-41.34382,1028.919
2.389859199,0.144136,-0.9109076,0.5140669,-0.1600952,0.3198758,0.9548519,24.47269,-1.714638,-41.34382,1028.919
2.392341137,0.144136,-0.7325459,0.3920478,-0.1561879,0.324259,0.9572846,24.47269,-1.714638,-41.34382,1028.919
2.394823074,0.144136,-0.7325459,0.3920478,-0.1615669,0.3262025,0.9544249,24.47269,-1.714638,-41.34382,1028.916
2.397304535,0.08253193,-0.6730919,0.4530574,-0.1615696,0.3247226,0.9510528,24.47269,-1.714638,-41.34382,1028.916
2.399786472,0.08253193,-0.5541841,0.3310382,-0.1576524,0.3184038,0.9538779,24.47269,-1.714638,-41.34382,1028.916
2.402271747,0.2673442,-0.4352763,0.3310382,-0.158146,0.3261991,0.955382,24.47269,-1.714638,-41.34382,1028.916
2.404749870,0.2057401,-0.3758224,0.3920478,-0.158147,0.3247279,0.95345,24.47269,-1.714638,-41.34382,1028.916
2.407230854,0.144136,-0.4352763,0.1480094,-0.1635232,0.3266857,0.9529904,24.47269,-1.714638,-41.34382,1028.916
2.409712791,0.144136,-0.3163685,0.1480094,-0.1596144,0.3261887,0.9529832,24.47269,-1.714638,-41.34382,1028.916
2.412194252,0.2673442,-0.3163685,0.08699975,-0.1591325,0.3325072,0.9520744,24.47269,-1.714638,-41.34382,1028.916
2.414676189,0.144136,-0.1974607,0.02599015,-0.1610816,0.3266734,0.9520283,24.47269,-1.714638,-41.34382,1028.916
2.417158127,0.02092784,-0.2569146,-0.09602907,-0.160583,0.3247688,0.9592122,24.47269,-1.714638,-41.34382,1028.916
2.419639587,0.144136,-0.1974607,-0.09602907,-0.1615665,0.3257159,0.9544209,24.47269,-1.714638,-41.34382,1028.916
2.422121525,0.02092784,-0.1380068,-0.1570387,-0.1644955,0.3296451,0.9592553,24.47269,-1.714638,-41.34382,1028.916
2.424602985,-0.04067625,-0.0785529,-0.2180483,-0.1625412,0.3281744,0.9582818,24.47269,-1.714638,-41.34382,1028.916
2.427084923,0.3289483,0.09980881,-0.2180483,-0.1669388,0.3296487,0.9587774,24.46941,-0.9653006,-41.35086,1028.916
2.429566383,0.08253193,0.2187166,-0.2790579,-0.1679098,0.3233285,0.9592065,24.46941,-0.9653006,-41.35086,1028.916
2.432048321,-0.1022803,0.09980881,-0.4620867,-0.1669452,0.3286382,0.9525292,24.46941,-0.9653006,-41.35086,1028.916
2.434529781,0.08253193,0.2187166,-0.4620867,-0.1669445,0.3252206,0.9505813,24.46941,-0.9653006,-41.35086,1028.918
2.437011719,0.144136,0.1592627,-0.4620867,-0.1684039,0.3252561,0.9558628,24.46941,-0.9653006,-41.35086,1028.918
2.439492702,0.08253193,0.1592627,-0.4620867,-0.1708471,0.3257492,0.9558688,24.46941,-0.9653006,-41.35086,1028.918
2.441974640,0.144136,0.2187166,-0.6451156,-0.1659642,0.3247458,0.9529766,24.46941,-0.9653006,-41.35086,1028.918
2.444457054,0.02092784,0.1592627,-0.7671348,-0.1659687,0.3286327,0.9520483,24.46941,-0.9653006,-41.35086,1028.918
2.446938038,-0.1022803,0.1592627,-0.6451156,-0.1689022,0.332539,0.9530427,24.46941,-0.9653006,-41.35086,1028.918
2.449419975,-0.04067625,0.1592627,-0.889154,-0.1669378,0.3252551,0.9563414,24.46941,-0.9653006,-41.35086,1028.918
2.451901436,-0.1022803,0.2187166,-0.8281444,-0.1674253,0.3228177,0.955362,24.46941,-0.9653006,-41.35086,1028.918
2.454385280,0.02092784,0.2781706,-0.7671348,-0.16743,0.3301251,0.9568617,24.46941,-0.9653006,-41.35086,1028.918
2.456864834,0.08253193,0.2781706,-1.072183,-0.1664447,0.3272316,0.9616372,24.46941,-0.9653006,-41.35086,1028.918
2.459346771,-0.04067625,0.2187166,-1.194202,-0.1669374,0.3267234,0.9577935,24.46941,-0.9653006,-41.35086,1028.918
2.461828232,-0.04067625,0.3376244,-1.072183,-0.1649905,0.3305908,0.9544636,24.46941,-0.9653006,-41.35086,1028.918
2.464310169,-0.04067625,0.4565322,-1.255212,-0.1635178,0.3296453,0.9597346,24.46941,-0.9653006,-41.35086,1028.918
2.466791153,-0.1022803,0.3970784,-1.194202,-0.1649818,0.323793,0.9568079,24.46941,-0.9653006,-41.35086,1028.918
2.469273567,-0.04067625,0.4565322,-1.43824,-0.1664423,0.3218677,0.9596733,24.46941,-0.9653006,-41.35086,1028.918
2.471755504,-0.04067625,0.5159862,-1.49925,-0.163518,0.325246,0.9563386,24.46941,-0.9653006,-41.35086,1028.918
2.474236488,0.08253193,0.3970784,-1.316221,-0.1630247,0.3242916,0.9596904,24.46941,-0.9653006,-41.35086,1028.919
2.476718426,0.08253193,0.57544,-1.682279,-0.1620546,0.3252306,0.9544173,24.45691,-1.347126,-41.73071,1028.919
2.479204655,0.2057401,0.634894,-1.43824,-0.1669306,0.320893,0.9591857,24.45691,-1.347126,-41.73071,1028.919
2.481681824,0.02092784,0.634894,-1.682279,-0.1669358,0.3281975,0.9602056,24.45691,-1.347126,-41.73071,1028.919
2.484163284,-0.1638844,0.8132557,-1.865308,-0.1679142,0.3296599,0.9602183,24.45691,-1.347126,-41.73071,1028.919
2.486645222,0.02092784,0.8727096,-1.743288,-0.1684051,0.3232954,0.9534467,24.45691,-1.347126,-41.73071,1028.919
2.489126682,0.02092784,0.634894,-1.804298,-0.1669309,0.3199141,0.9582178,24.45691,-1.347126,-41.73071,1028.919
2.491608620,0.08253193,0.8132557,-1.926317,-0.1683958,0.3204103,0.959183,24.45691,-1.347126,-41.73071,1028.919
2.494090557,0.144136,0.8132557,-1.926317,-0.1718193,0.3208888,0.9563097,24.45691,-1.347126,-41.73071,1028.919
2.496572018,0.144136,0.9321635,-1.987327,-0.176213,0.3184733,0.9572536,24.45691,-1.347126,-41.73071,1028.919
2.499053955,0.2057401,1.051071,-2.048336,-0.1742524,0.3136137,0.9591322,24.45691,-1.347126,-41.73071,1028.919
2.501534939,0.08253193,1.051071,-1.987327,-0.1747419,0.3121438,0.9572006,24.45691,-1.347126,-41.73071,1028.919
2.504017353,0.02092784,0.7538018,-2.109346,-0.1747426,0.3136064,0.9576926,24.45691,-1.347126,-41.73071,1028.919
2.506498337,0.144136,0.7538018,-2.048336,-0.1771913,0.3140708,0.9528984,24.45691,-1.347126,-41.73071,1028.919
2.508980274,-0.04067625,0.8727096,-1.926317,-0.1810982,0.3131109,0.9533737,24.45691,-1.347126,-41.73071,1028.919
2.511461735,-0.1638844,0.8727096,-2.109346,-0.1810898,0.3092441,0.957662,24.45691,-1.347126,-41.73071,1028.919
2.513943672,0.02092784,0.6943479,-2.048336,-0.1835406,0.3160513,0.9557998,24.45691,-1.347126,-41.73071,1028.916
2.516425133,0.2057401,0.6943479,-2.170356,-0.1845148,0.3146028,0.9572287,24.45691,-1.347126,-41.73071,1028.916
2.518907070,0.08253193,0.8132557,-2.048336,-0.1806066,0.3121479,0.9552855,24.45691,-1.347126,-41.73071,1028.916
2.521389007,0.08253193,0.8132557,-2.048336,-0.1864574,0.3058695,0.9605188,24.45691,-1.347126,-41.73071,1028.916
2.523870468,0.144136,0.634894,-2.109346,-0.1864653,0.3097393,0.9567105,24.45691,-1.347126,-41.73071,1028.916
2.526352882,0.2673442,0.6943479,-2.048336,-0.1845117,0.3116861,0.9576848,23.76644,-2.094177,-41.705,1028.916
2.528833866,0.144136,0.6943479,-2.109346,-0.1864594,0.306837,0.9595668,23.76644,-2.094177,-41.705,1028.916
2.531315803,0.2057401,0.6943479,-1.926317,-0.1864674,0.3121722,0.9567304,23.76644,-2.094177,-41.705,1028.916
2.533796787,0.2057401,0.634894,-1.926317,-0.187942,0.3140851,0.9505074,23.76644,-2.094177,-41.705,1028.916
2.536279201,0.2057401,0.5159862,-2.048336,-0.1894058,0.3126321,0.9509766,23.76644,-2.094177,-41.705,1028.916
2.538760185,0.2673442,0.3970784,-1.987327,-0.1903756,0.3107171,0.9557618,23.76644,-2.094177,-41.705,1028.916
2.541242123,0.2057401,0.3376244,-2.048336,-0.1884262,0.3136199,0.9538639,23.76644,-2.094177,-41.705,1028.916
2.543724060,0.2673442,0.3376244,-1.926317,-0.1898979,0.3135922,0.9485849,23.76644,-2.094177,-41.705,1028.916
2.546205521,0.2057401,0.3970784,-1.987327,-0.1889123,0.3121672,0.9548123,23.76644,-2.094177,-41.705,1028.916
2.548687458,0.2057401,0.2187166,-2.048336,-0.1879385,0.3145918,0.9538715,23.76644,-2.094177,-41.705,1028.916
2.551168919,0.3289483,0.1592627,-1.987327,-0.1923329,0.3111945,0.9533672,23.76644,-2.094177,-41.705,1028.916
2.553650856,0.3289483,0.2781706,-1.926317,-0.1869597,0.308733,0.9509428,23.76644,-2.094177,-41.705,1028.917
2.556132316,0.2057401,0.2781706,-2.048336,-0.1894031,0.312157,0.9528927,23.76644,-2.094177,-41.705,1028.917
2.558614254,0.144136,0.04035491,-1.865308,-0.1903813,0.3160638,0.9548454,23.76644,-2.094177,-41.705,1028.917
2.561095714,0.3905524,-0.1380068,-1.865308,-0.1908791,0.3150403,0.9461977,23.76644,-2.094177,-41.705,1028.917
2.563577652,0.3905524,-0.1380068,-1.987327,-0.1903819,0.3160609,0.9543655,23.76644,-2.094177,-41.705,1028.917
2.566058636,0.5137606,-0.1380068,-1.926317,-0.185493,0.3126447,0.9548135,23.76644,-2.094177,-41.705,1028.917
2.568540573,0.3905524,-0.2569146,-1.804298,-0.1903815,0.3194842,0.9572735,23.76644,-2.094177,-41.705,1028.917
2.571022987,0.3289483,-0.019099,-1.743288,-0.186483,0.3184461,0.9481418,23.76644,-2.094177,-41.705,1028.917
2.573503971,0.4521565,-0.1380068,-1.926317,-0.1864761,0.3111503,0.9485622,23.76644,-2.094177,-41.705,1028.917
2.575985908,0.3905524,-0.4352763,-1.743288,-0.1864771,0.311634,0.9480861,25.24272,-0.959445,-40.92397,1028.917
2.578467369,0.3905524,-0.4947302,-1.743288,-0.1845327,0.3203758,0.9462361,25.24272,-0.959445,-40.92397,1028.917
2.580949306,0.5753646,-0.4352763,-1.682279,-0.1855025,0.3204157,0.952477,25.24272,-0.959445,-40.92397,1028.917
2.583430767,0.6369687,-0.3758224,-1.804298,-0.1850109,0.3194527,0.9543889,25.24272,-0.959445,-40.92397,1028.917
2.585912704,0.6369687,-0.4352763,-1.743288,-0.1801366,0.3218267,0.9467243,25.24272,-0.959445,-40.92397,1028.917
2.588394165,0.5137606,-0.3758224,-1.804298,-0.1811087,0.3213657,0.9505613,25.24272,-0.959445,-40.92397,1028.917
2.590876102,0.4521565,-0.5541841,-1.804298,-0.1820816,0.3204123,0.9534342,25.24272,-0.959445,-40.92397,1028.917
2.593358040,0.3289483,-0.4352763,-1.743288,-0.1815921,0.3179723,0.9524539,25.24272,-0.959445,-40.92397,1028.913
2.595839500,0.4521565,-0.6730919,-1.865308,-0.1801247,0.3184665,0.9543768,25.24272,-0.959445,-40.92397,1028.913
2.598321438,0.5137606,-0.6730919,-1.865308,-0.1801268,0.3208994,0.9543967,25.24272,-0.959445,-40.92397,1028.913
2.600802421,0.4521565,-0.613638,-1.926317,-0.1825821,0.3257288,0.9472383,25.24272,-0.959445,-40.92397,1028.913
2.603284359,0.2673442,-0.5541841,-1.987327,-0.1820858,0.3233232,0.952018,25.24272,-0.959445,-40.92397,1028.913
2.605765819,0.5137606,-0.3758224,-1.804298,-0.1816007,0.3233047,0.9491376,25.24272,-0.959445,-40.92397,1028.913
2.608247757,0.5137606,-0.6730919,-1.804298,-0.1820899,0.3228137,0.9481739,25.24272,-0.959445,-40.92397,1028.913
2.610729217,0.5137606,-0.7919998,-1.987327,-0.1845274,0.3233355,0.9529802,25.24272,-0.959445,-40.92397,1028.913
2.613211155,0.3905524,-0.6730919,-1.926317,-0.1830721,0.322301,0.9433706,25.24272,-0.959445,-40.92397,1028.913
2.615696430,0.3289483,-0.613638,-1.804298,-0.1816031,0.3247587,0.9481894,25.24272,-0.959445,-40.92397,1028.913
2.618174553,0.3289483,-0.7919998,-1.865308,-0.1879416,0.3175084,0.9534153,25.24272,-0.959445,-40.92397,1028.913
2.620656490,0.3905524,-0.8514537,-1.804298,-0.1825798,0.3198754,0.9447905,25.24272,-0.959445,-40.92397,1028.913
2.623137951,0.3905524,-0.8514537,-1.926317,-0.1850216,0.3252631,0.9496363,25.24272,-0.959445,-40.92397,1028.913
2.625619888,0.3289483,-0.6730919,-1.926317,-0.1874529,0.3199515,0.9553549,25.23114,-2.0918,-41.36066,1028.913
2.630583286,0.4521565,-0.9703615,-1.987327,-0.1859996,0.3237944,0.9477053,25.23114,-2.0918,-41.36066,1028.913
2.633064270,0.3905524,-1.089269,-1.987327,-0.1879514,0.3223456,0.9486549,25.23114,-2.0918,-41.36066,1028.912
2.635546207,0.144136,-0.9703615,-1.926317,-0.1859985,0.3218452,0.9472093,25.23114,-2.0918,-41.36066,1028.912
2.638027668,0.3905524,-1.148723,-1.926317,-0.1874649,0.3208673,0.9457625,25.23114,-2.0918,-41.36066,1028.912
2.640509605,0.4521565,-1.148723,-1.865308,-0.1928414,0.3238011,0.9457909,25.23114,-2.0918,-41.36066,1028.912
2.642991066,0.4521565,-1.208177,-1.926317,-0.1879479,0.3189424,0.9491072,25.23114,-2.0918,-41.36066,1028.912
2.645473003,0.5137606,-1.327085,-1.926317,-0.1874533,0.3184831,0.9539029,25.23114,-2.0918,-41.36066,1028.912
2.647954941,0.3905524,-1.386539,-1.926317,-0.1879525,0.3223399,0.947695,25.23114,-2.0918,-41.36066,1028.912
2.650436401,0.3905524,-1.386539,-1.804298,-0.1869787,0.3267194,0.9482099,25.23114,-2.0918,-41.36066,1028.912
2.652918339,0.3905524,-1.386539,-1.804298,-0.1899022,0.3204131,0.9500807,25.23114,-2.0918,-41.36066,1028.912
2.655399799,0.4521565,-1.445993,-1.865308,-0.1918584,0.3189413,0.9471903,25.23114,-2.0918,-41.36066,1028.912
2.657881737,0.4521565,-1.386539,-1.804298,-0.1894113,0.3248226,0.9553963,25.23114,-2.0918,-41.36066,1028.912
2.660362720,0.2057401,-1.564901,-1.926317,-0.1855022,0.3194396,0.9519891,25.23114,-2.0918,-41.36066,1028.912
2.662845135,0.2057401,-1.564901,-1.743288,-0.1898999,0.3184696,0.9505448,25.23114,-2.0918,-41.36066,1028.912
2.665326118,0.3289483,-1.683808,-1.804298,-0.1869614,0.320454,0.9582385,25.23114,-2.0918,-41.36066,1028.912
2.667808056,0.2673442,-1.683808,-1.621269,-0.1903816,0.3189948,0.9567894,25.23114,-2.0918,-41.36066,1028.912
2.670289993,0.2673442,-1.921624,-1.682279,-0.1889242,0.3194373,0.9500719,25.23114,-2.0918,-41.36066,1028.912
2.672771454,0.3289483,-2.040532,-1.926317,-0.1889195,0.3223941,0.956336,25.23114,-2.0918,-41.36066,1028.909
2.675253391,0.2673442,-1.981078,-1.621269,-0.1918547,0.3223818,0.9529784,24.48755,-1.33162,-40.90008,1028.909
2.677735329,0.2057401,-2.040532,-1.865308,-0.1957547,0.3180359,0.956786,24.48755,-1.33162,-40.90008,1028.909
2.680220127,0.3289483,-2.218894,-1.743288,-0.1972237,0.3180226,0.9539071,24.48755,-1.33162,-40.90008,1028.909
2.682698250,0.3905524,-2.337801,-1.621269,-0.1962518,0.3214146,0.952014,24.48755,-1.33162,-40.90008,1028.909
2.685180187,0.2057401,-2.218894,-1.56026,-0.1957614,0.3258213,0.9568496,24.48755,-1.33162,-40.90008,1028.909
2.687661648,0.144136,-2.337801,-1.56026,-0.1962521,0.3223906,0.952502,24.48755,-1.33162,-40.90008,1028.909
2.690143585,0.2057401,-2.337801,-1.49925,-0.1977109,0.3146092,0.9524395,24.48755,-1.33162,-40.90008,1028.909
2.692624569,0.144136,-2.575617,-1.49925,-0.1957544,0.3151049,0.954842,24.48755,-1.33162,-40.90008,1028.909
2.695106506,0.2057401,-2.575617,-1.49925,-0.1996693,0.3175253,0.951025,24.48755,-1.33162,-40.90008,1028.909
2.697588921,0.2057401,-2.753978,-1.43824,-0.2001592,0.314587,0.9476415,24.48755,-1.33162,-40.90008,1028.909
